acceleration_x,acceleration_y,acceleration_z,temperature_c,humidity_percent,wind_speed_mps,fft_peak_freq,fft_magnitude,degradation_score,structural_condition,damage_class,forecast_score_next_30d,date,time
-0.428902079779726,0.0091630160561347,-0.4484295835646354,24.263204667433644,82.5734763539799,9.129823960618234,3.264360223804593,1.393159023119367,75.15589788938354,3,Severe,83.16475327388918,2020-01-01,00:00:00
0.0868931336052859,-0.0054820148231375,0.4229731795807928,19.34383842666696,83.54511192850582,6.67618459443649,1.2902510957552502,0.1909759759150162,10.844521411830709,0,No Damage,16.16865266235886,2020-01-01,00:15:00
-0.1685312893786957,-0.7034995668649233,-0.4039031277112336,18.02108244916831,41.88153995517544,1.0841212582924094,4.899751515371277,1.4028450396890637,61.67397417359095,2,Moderate,65.25488099116326,2020-01-01,00:30:00
-0.242926499324204,-0.0468383666946735,-0.3596854183813993,19.908277910897397,81.78719982929506,0.003721755612151,2.347589644163494,0.6592386479462076,26.5738561244083,1,Minor,29.030163432548814,2020-01-01,00:45:00
0.1756377321990435,0.0007916719464689,-0.2425741322560782,30.99528642281544,89.3941473006351,1.0322348117796911,0.9286260965345204,0.7334595466349689,38.942145366070825,1,Minor,34.534451170792,2020-01-01,01:00:00
-0.2597877574029804,0.3647989130091563,-0.047853744755736,27.391412301887826,80.90537452741162,5.584153902116978,1.516210469749629,1.3090070976811965,11.478560658973144,0,No Damage,8.589991219945475,2020-01-01,01:15:00
-0.0748948352563031,-0.0592749143287945,0.1627848622872557,26.337492267471134,34.92240393081248,1.9378151285037348,3.0487082394906606,1.1265959165370412,44.77508824845168,1,Minor,46.01282821850889,2020-01-01,01:30:00
-0.0105186542855776,-0.2380655283004399,0.4445744804354921,24.08982745007574,64.46455903006995,6.412842218460321,0.6105169614085397,0.4761079972568497,36.62978992289821,1,Minor,33.5206146319475,2020-01-01,01:45:00
0.0599371751285615,0.3353023559712556,-0.2248647497989472,35.894112566158924,62.35618432388262,4.433310445152855,1.048861889383938,0.5023623555821698,55.22362881903382,2,Moderate,54.7384570683364,2020-01-01,02:00:00
-0.1783934535638493,0.0239273616643467,-0.2381995867340296,15.47217184498405,75.44805493380865,10.603704006891174,4.33648654577363,0.7121099981115404,39.44381157303992,1,Minor,40.3782774337955,2020-01-01,02:15:00
-0.0476677905078008,-0.325624832233505,0.066583545234985,29.77891262277787,81.19293129004359,12.721583152342664,1.854870920966473,0.1161408570251796,10.188134798547896,0,No Damage,8.769252846520931,2020-01-01,02:30:00
-0.086493601372086,0.2495966821911312,-0.1697922066632612,33.952460802532265,55.5370108707277,1.4857157312328724,3.662463302491368,1.229999523545933,31.06508128893864,1,Minor,33.78449598198753,2020-01-01,02:45:00
0.0763003959789012,-0.1599462233827371,-0.8694796640961208,29.264595701653477,72.03681732407296,9.810276196966354,2.932720423297745,0.9017012406454368,80.86155664889472,3,Severe,88.73060667109726,2020-01-01,03:00:00
-0.0561570767299471,0.1215852680768982,0.5971845831980307,26.48748133561184,48.32035721228847,14.058373323750896,0.5936163638801741,1.4802055791480495,39.43624627314526,1,Minor,44.56318261981316,2020-01-01,03:15:00
0.0545283496560288,-0.3605648540361664,0.094512189944205,19.609707522042772,58.08458068477162,5.601470963009303,3.201642943349224,0.7099329113824216,82.7002494426691,3,Severe,84.84507107470982,2020-01-01,03:30:00
-0.2746035090590508,0.2388745184398457,0.0167121116555815,24.761679357287147,89.99741401405504,8.954895084838217,4.032197751491174,0.3249492402560666,64.64202157763762,2,Moderate,65.60888696206194,2020-01-01,03:45:00
-0.5103599239198175,0.0299101520608541,0.0171540386704145,23.3442341976522,69.92681299848499,12.698677310513864,1.1563732767688053,0.7104549824520945,54.5488484649834,2,Moderate,48.00530611358434,2020-01-01,04:00:00
0.1936633058889393,-0.2912682258519463,-0.3952572487521713,20.170232372070966,36.55184702329802,1.12192712188715,3.755940280345596,1.4503997215733366,54.36700583118272,2,Moderate,60.77511176378414,2020-01-01,04:15:00
0.3020185150614979,-0.323347901724916,0.074894831120987,23.607644620364702,83.70554378025258,7.888558345374262,3.99650655210043,0.5332911873220335,13.400044620777097,0,No Damage,19.47551949806743,2020-01-01,04:30:00
-0.1985067972422262,-0.2997407604967401,0.5997766417326169,24.44992494662525,37.63562315416016,14.816713292067783,3.890440316377936,0.6922232009722538,41.26695937019326,1,Minor,47.53343697966953,2020-01-01,04:45:00
-0.0360672995773329,0.0277579342542764,-0.5319707903137598,18.38447823343589,58.40544178629737,3.537684219041024,3.325176188883338,0.504772838901063,66.1836594126668,2,Moderate,65.93681234543709,2020-01-01,05:00:00
-0.1058742821167071,0.2034361968534022,-0.5813571528146507,28.77982678884405,34.7535918740364,10.94387467426717,2.439761577352125,1.1841144796424783,100.0,3,Severe,100.0,2020-01-01,05:15:00
0.1776395988471603,0.1096381817248354,-0.262260842789063,26.648314135767503,68.82140907165831,4.636522868719534,2.7115266106463487,0.1001754036829944,39.882467825310265,1,Minor,44.14543933922035,2020-01-01,05:30:00
-0.3184032110504988,0.0568205741572993,-0.2668995436240949,26.549186160811978,79.80485592540909,3.592083108931461,2.3566163705500296,0.6782837460145844,58.27621096019449,2,Moderate,60.139620370822605,2020-01-01,05:45:00
0.1534663440963666,-0.3073199980605496,0.1299825957661225,32.70803313604672,41.0592943468302,11.464009086149124,1.8814834289462208,1.050973004645084,49.974222241411134,1,Minor,62.04943394458895,2020-01-01,06:00:00
0.4723356504376271,-0.405827241253509,0.2394896449664583,29.175982177253204,50.05113400589076,13.825073306309829,1.561707562507609,1.4402302131643148,47.341577456960025,1,Minor,50.40823420692362,2020-01-01,06:15:00
-0.0822721514123707,-0.3802993662731247,0.1823734532965602,27.694652304252507,51.78198961474253,13.31511899596144,4.753992169465222,0.2771854049378616,1.653920127354617,0,No Damage,4.566092590281162,2020-01-01,06:30:00
0.1099718349619933,0.2389200722104084,0.0295468936169961,24.11107224634117,41.97285727666778,13.79216750716118,0.731280336333443,0.9263751852638104,30.415160260370484,1,Minor,29.90191330615412,2020-01-01,06:45:00
-0.3977612201165684,0.2878399220323469,0.1793070901610782,26.977103879235635,30.094764300403096,9.935863254366229,2.269963639135633,0.4329526679458149,27.106681230797108,1,Minor,26.64305296445246,2020-01-01,07:00:00
-0.6270507282702226,0.0754351148089258,0.6309423820769198,26.479323596678647,72.48610062868741,4.779464944739865,2.289916846442925,0.9370174585593904,15.26498242117015,0,No Damage,22.185112028749597,2020-01-01,07:15:00
-0.2417336877187516,-0.6486238009941453,0.192157621416002,29.883184869344813,32.350623321505275,4.050129553999447,1.645034836164712,0.8245004014163715,72.91115251433624,2,Moderate,81.64643521350246,2020-01-01,07:30:00
-0.0305846587678505,-0.0801017781196526,-0.494847906539688,18.556265878729064,48.1388222190476,3.24073009880633,3.853955757205806,0.7380297729672437,43.82214699128259,1,Minor,46.466163522155945,2020-01-01,07:45:00
0.161136477626985,0.3664569079756238,-0.0103162543001193,21.550962325750813,66.26413959930038,3.260691307131132,2.332056098386667,0.2184917079718938,38.36488675931115,1,Minor,42.65937361926487,2020-01-01,08:00:00
-0.3543574687808165,-0.0376344380079788,0.0490167923104413,24.549725044562493,31.35128412037888,12.730414644054031,1.7172950680293284,0.6779150681606589,26.584452014455685,1,Minor,28.695372815323303,2020-01-01,08:15:00
-0.3608633349935076,0.031660963615964,0.087935163390705,26.030638061479365,33.57226104866431,10.72452993287083,2.9690051135502245,1.1059156370796948,47.14115180976023,1,Minor,40.668587162602414,2020-01-01,08:30:00
0.1461054214375398,0.0322380774011389,0.3456630359944301,29.004468502648272,47.055485855805216,4.738498135832432,0.984589427179538,1.436053714266828,47.8731435835807,1,Minor,48.460107702906704,2020-01-01,08:45:00
0.0596394921221618,0.2472372898276407,-0.0975805459962219,23.939369642993025,88.874798919283,12.01455733540049,0.5213981622495429,0.4444137823964877,52.71714436665691,2,Moderate,56.03376145952738,2020-01-01,09:00:00
0.3136157055973622,0.3989808429246872,0.3139621397563053,18.414095699800196,61.3094505167192,13.92105890879073,2.816358027226152,0.6097732185901152,8.591157096665246,0,No Damage,21.733275638249143,2020-01-01,09:15:00
0.6732879994952433,0.1760679875356021,-0.7122782293216708,26.75169261087082,48.77365127356072,1.595628960400764,4.508275895989861,1.0192625674224574,16.797762369218535,0,No Damage,20.3530844111376,2020-01-01,09:30:00
-0.089785060301905,0.1006474341115136,-0.0783213049371905,29.077647600817368,79.71324647232076,7.504153828239291,3.4110786188633746,0.4601167716598554,31.07363580208375,1,Minor,34.7088631215483,2020-01-01,09:45:00
0.2297204742864949,-0.2175013670150628,-0.0587096061453516,38.69035163458528,55.54157644035585,14.01307100668982,4.6240874061857,0.8534680402534763,17.584313436450266,0,No Damage,21.866064041572294,2020-01-01,10:00:00
0.135864839908165,-0.253412658271254,0.3645250436271369,25.9189385047739,40.057475732599926,14.029277628930435,3.216511503726589,0.9036866778349368,35.02774191918423,1,Minor,37.80852877495717,2020-01-01,10:15:00
0.2008136781113276,0.0143533765166904,0.0580642908568728,21.56863261514434,78.8624214886398,14.067227673895108,1.126874937248,0.8121733769174421,0.0,0,No Damage,0.7422445930679291,2020-01-01,10:30:00
-0.8723004052004936,0.0464521760252624,-0.2641943599599272,24.613462181496768,81.09684394268689,2.4255471886223106,3.3499050197254334,0.3702245236721544,29.390088175972014,1,Minor,35.215699539392816,2020-01-01,10:45:00
-0.3284825128215922,0.3701448043389931,0.4632189243307859,20.713768113988213,43.07815872774277,10.004984550257026,0.5319172801318401,0.3976349069872531,36.99841415783021,1,Minor,38.13040355181137,2020-01-01,11:00:00
-0.041981792717866,0.198881284400172,0.241921785503467,22.28000348722849,81.85712072748889,6.740902007725266,1.016253382766707,0.5335117479883179,57.40343255299206,2,Moderate,64.05304995084003,2020-01-01,11:15:00
-0.1681284780530317,-0.2201495519930594,-0.2109745016564451,27.116717989016585,72.02137568501068,14.882993219825297,2.8625053881872184,0.8105011422692563,37.19901394247465,1,Minor,33.23805287456515,2020-01-01,11:30:00
0.6328079160842773,0.3511825525035673,-0.3570619059537863,32.05402354601681,81.06041277823078,5.911989344479559,2.731357368999268,1.2683678785315504,48.37086333158408,1,Minor,54.86258874819407,2020-01-01,11:45:00
0.2233175167340655,0.1338049037719185,0.0803563946525736,24.64388370911801,44.81938015999778,13.946312230537504,3.5623059819740166,0.4114235847688413,67.57235866626735,2,Moderate,66.41708648206809,2020-01-01,12:00:00
-0.1177883664721525,0.5103230322026643,0.0838182735370448,26.989370549326537,75.42881206917119,14.501148925230432,1.9765904245300967,1.3391576553740938,83.96341398363302,3,Severe,88.35198215353003,2020-01-01,12:15:00
0.3506515198558412,0.1555991409557101,0.0185159469095322,24.1264186611203,73.63548281443997,1.1839522255510442,1.2918217964407412,0.7867580849236306,42.68494245884471,1,Minor,47.702404533741074,2020-01-01,12:30:00
0.0858707176162158,-0.5502642990254877,0.1084394904690933,30.255504719885423,64.11256963594704,1.2372105458853948,2.773498618781323,1.2672368528991216,0.6107217695175251,0,No Damage,2.8551806717177586,2020-01-01,12:45:00
0.7613007333395381,-0.1707235992202886,0.3847571654896725,33.71357218507386,85.71474755873012,3.1674480128076947,4.821387008628101,0.8197430330649128,55.68772627254332,2,Moderate,54.18030917013361,2020-01-01,13:00:00
-0.0447273698040656,0.0556049642405384,-0.2389026461681225,24.250867963812286,51.85668949559444,2.044226183912654,3.979856545963614,0.3962108457603308,53.013124993429045,2,Moderate,50.029654297427285,2020-01-01,13:15:00
0.2747595897532127,-0.1783271638434567,0.6679905550021253,28.46414850684358,30.15677642903221,9.41936743267236,1.3868475317317,0.6638973286104558,31.36706924157727,1,Minor,31.883567497892617,2020-01-01,13:30:00
-0.1718491210145737,-0.1337494084305431,-0.1292798748618913,22.00560650112309,51.594585529956376,7.750065504219981,4.242673240924129,1.473731588468796,24.5396462340126,0,No Damage,31.858453165607447,2020-01-01,13:45:00
-0.1770507138989414,0.2696590821081744,-0.0327797811540799,30.57318284418465,76.55552259714585,0.4109164988996072,3.7533989869299633,0.6216802339098189,63.21985335489974,2,Moderate,76.7858602189425,2020-01-01,14:00:00
0.2515555524255427,-0.3371652004225101,0.6059560376240576,19.057853378179164,86.54949130237227,8.621637249979893,3.3819871113408926,0.8243334551260566,23.23401587503569,0,No Damage,23.55714318548788,2020-01-01,14:15:00
0.5650853348685738,-0.1528491939797619,0.2561764813576227,25.800847972286952,58.826539729982926,9.188974932039669,2.8023376976451857,0.1153755129051214,52.58309916846257,2,Moderate,46.21783323170466,2020-01-01,14:30:00
-0.2417253238264895,0.2623692792633331,0.0533195401213804,26.089184545033973,67.0282695657984,12.320999396514171,3.3986894063192983,0.905422311454974,7.040286003179119,0,No Damage,3.530400571191808,2020-01-01,14:45:00
-0.4704842776060542,0.2480772600302853,-0.0650929301250546,26.721691567838068,80.41895717999066,13.877840986760951,2.224526701647459,0.9021811079078218,44.93775241131805,1,Minor,45.10502732854583,2020-01-01,15:00:00
0.09653494349153,-0.2783642179311322,0.1341169953754807,29.51976497391507,66.79571877362642,9.573154170972956,1.9903774014604343,0.2821006470178212,67.05128587427942,2,Moderate,78.47455243591885,2020-01-01,15:15:00
0.0247425783862919,0.4180211893043238,-0.236156323036577,28.605845373019378,71.88135989976827,7.366097586232757,0.5697184852107855,1.0348435957494038,19.706897075992337,0,No Damage,25.533078638729386,2020-01-01,15:30:00
-0.2759472133620536,-0.0060486549077504,-0.4669020021224093,34.49181042549727,61.40835438289612,4.929711365513981,4.9376990993433285,0.6201892612030826,21.301210199914436,0,No Damage,25.037292769466347,2020-01-01,15:45:00
-0.1344995265155553,0.221714691065793,0.3935210258525428,21.90886669275091,51.76711639788128,3.760940302286295,4.73747394519829,0.7970202155607289,22.17614555971241,0,No Damage,24.028182460149395,2020-01-01,16:00:00
0.2253266557950393,-0.2871709831000897,-0.0966951796265721,31.212935066193225,75.03081405590083,11.336906844840929,0.9165700235406796,0.2102852408686832,60.66326276134646,2,Moderate,63.04274481151511,2020-01-01,16:15:00
0.6900395381388598,-0.1966161098589338,-0.0541795678845208,25.344487485075657,64.74235268406227,14.238287905122212,1.875315218325956,0.548574334964117,9.708814609396471,0,No Damage,12.5361549808278,2020-01-01,16:30:00
0.0794381703955499,-0.1921448005492918,0.2228611381844751,30.29698379010955,71.47952727280301,8.73071986462153,4.575290424726988,0.2444917761463431,14.564829154072903,0,No Damage,15.981506568736842,2020-01-01,16:45:00
0.1107249373589153,0.2638998725390308,-0.3826517945197594,29.282556742776816,56.203250347589766,7.712697765392875,4.436172974114083,0.5147286408941164,36.17618762616568,1,Minor,44.632087538617895,2020-01-01,17:00:00
0.34453250582551,-0.0551772971688538,-0.1586907874013768,17.299466229879894,78.29988175549266,10.486432611730423,2.3800714219420427,0.7561386043042857,49.25431793584553,1,Minor,56.02212238463952,2020-01-01,17:15:00
-0.060295205558095,0.1057975968459764,-0.1176058316535844,21.70110687411191,40.705311490170814,7.914107056300343,3.8055831595783274,1.4739016049845957,62.50540690233804,2,Moderate,59.59133625694156,2020-01-01,17:30:00
0.4246786102599425,0.2091897870636503,-0.0032333911126591,21.64770557771349,89.55796711971436,14.020565022575434,2.1648924030743903,0.385331979207161,47.91005195230098,1,Minor,48.88189341145477,2020-01-01,17:45:00
0.0328238160873539,0.0187301228579075,-0.3058041106883657,19.74784698424987,54.91243095774455,7.617556677293067,3.98370172993474,1.3742958192988173,59.371321047524674,2,Moderate,57.80562725919399,2020-01-01,18:00:00
-0.2085943067527417,-0.5963861650752048,0.8477953802422449,22.331978045658392,65.57028697273037,10.052811024660198,4.454392415750174,0.5372742393988165,8.353751328271766,0,No Damage,4.69426596948564,2020-01-01,18:15:00
-0.0886876833991158,0.2616896465175876,0.0370888617561449,38.78420035428823,62.558329935295646,8.644708738250316,4.818760788293168,1.0344988114189804,79.4989577337362,3,Severe,84.30413506141701,2020-01-01,18:30:00
-0.2869444267815473,-0.4523957431209602,-0.1028982297686461,24.59105758047437,86.37449198291188,6.279604522115745,2.4509074303549263,0.7442858513330242,6.115146092220279,0,No Damage,0.0,2020-01-01,18:45:00
-0.0249024271950369,-0.3382129545349324,-0.0272913826971932,31.42684212363957,33.9941722142219,12.537719051043949,2.1135719789523684,0.2988574379845475,28.917026270456184,1,Minor,26.992280600298194,2020-01-01,19:00:00
0.0283975331397628,-0.2044553001982987,-0.0025268843496126,22.972261475465935,41.64918801280065,8.423116888601289,1.929896579812406,0.8007099114549124,90.68497511420546,3,Severe,94.3195514209853,2020-01-01,19:15:00
-0.0706883021386895,-0.4854252768358966,-0.1453442807606179,30.68429228546393,86.6060857131485,9.455843309530438,1.1940416597254635,0.1809120748467826,36.00365526831915,1,Minor,41.38095043119201,2020-01-01,19:30:00
0.7126103061790785,0.1526441680911475,-0.0929282352902033,12.409356243393065,54.88190665950071,8.01018333783763,0.9915268046848608,1.1574050582681137,41.36262858616749,1,Minor,41.6084689409846,2020-01-01,19:45:00
0.2573066660827554,0.1056069099221439,-0.0402023461026577,18.284698668682537,88.89970324914435,10.532135945449667,2.9420641219472614,0.5459615844716739,35.853723956220506,1,Minor,44.80173483204556,2020-01-01,20:00:00
-0.0142335626006877,-0.3446607313252015,0.2175446359492105,17.216994852008487,56.28090184934684,11.07392141937734,1.1385788293477836,0.4198204132658016,11.020438864365635,0,No Damage,17.22589427307009,2020-01-01,20:15:00
0.1488047807764675,-0.1696281277717986,-0.0974874996313751,20.96759302974312,77.82348048986572,12.29516594496522,4.872885829795959,0.5752477341762953,40.251531449907134,1,Minor,40.62801360517884,2020-01-01,20:30:00
0.2051591970430154,0.4343361239485176,-0.0366914608845438,21.03086100104357,34.47506138599166,3.2175738190964425,3.56648182199079,0.5170263274412161,70.97476994431003,2,Moderate,78.54709309615653,2020-01-01,20:45:00
0.3962722731372383,-0.2364931716308189,0.1302631161446393,28.05543899496721,66.0370368272156,3.1551570756675384,0.508737990335556,1.2484969756066813,22.891226078315796,0,No Damage,23.582424387892274,2020-01-01,21:00:00
-0.1786189580837254,0.2102384961028419,-0.4131892759132348,23.59979226194569,38.11947583568247,6.078958655628367,3.620434033406219,0.5721893900983495,37.80333805021576,1,Minor,41.37235567651608,2020-01-01,21:15:00
-0.5906508408684717,-0.0971502359900578,0.1731487928555612,26.65663378603887,39.483358178081474,0.767207143561639,4.637150649468556,1.09821092703054,36.64067296806586,1,Minor,42.45024435406014,2020-01-01,21:30:00
-0.1046576502974231,0.0832187820581205,0.5272838699022121,22.20344096525058,36.31737516701525,8.997029384777221,1.2102961047681635,0.8344349881336266,22.28116455304733,0,No Damage,16.797670060120264,2020-01-01,21:45:00
0.6704584063871565,0.1408618183142424,-0.3501479873189451,26.2605076132652,69.83481719035757,2.0819663471185272,0.5765931879046624,1.2280586397153126,40.90981380572492,1,Minor,44.09179553199088,2020-01-01,22:00:00
0.0597617269827347,-0.2714441573213695,0.1597484854275106,23.34335438078021,71.79966823927293,11.58233012687124,1.7474842617846826,1.230025958023197,14.69443193786568,0,No Damage,14.733129085510518,2020-01-01,22:15:00
0.0513232134557472,0.3163680204134778,-0.1506653148624528,32.18720287388948,83.09955722335613,1.3737818093592318,1.4554261508846629,1.1162550557631674,22.919890075069024,0,No Damage,22.828846898325946,2020-01-01,22:30:00
0.2034482120477661,-0.0720092658756952,-0.125028228997161,25.190170776326397,59.30605210841277,11.752934524505362,1.1947036211348632,0.9224275227852192,62.72529482764925,2,Moderate,59.68737896645773,2020-01-01,22:45:00
0.5251874882675256,-0.0008571975424372,-0.2464012906940658,23.69377006324565,43.239322139420935,4.810308754626726,3.3175847769351647,1.1318180898136985,0.0,0,No Damage,0.4829020269311572,2020-01-01,23:00:00
0.2215108928486712,0.6305617173409938,0.0530244081039282,30.682088771276117,88.63564202217098,12.134303395811791,1.6811118313019084,0.503333477779312,20.89249105583296,0,No Damage,26.92567249470813,2020-01-01,23:15:00
0.0407391671758621,-0.2706101230449789,0.3074507469060827,28.64763526492436,67.28886457230215,5.764668966603427,3.2400381319435354,0.4410648062904673,56.02796693411938,2,Moderate,59.31640840456215,2020-01-01,23:30:00
-0.2121761756220608,-0.0923860969432306,0.1912242791384167,29.40041595854709,62.4349626246894,13.95473629026898,3.299294474519584,0.958602764669369,26.163612596865857,1,Minor,20.20354928750714,2020-01-01,23:45:00
-0.0502080025902047,-0.1493487007382376,0.1899406559776795,23.494635936908782,40.43790925224747,8.65538664008611,4.989422478436318,0.8947479915734163,37.76469066332309,1,Minor,48.95305442012314,2020-01-02,00:00:00
-0.3665231391704731,0.1763562577405475,-0.225058159064214,28.345974222365008,43.99202715961719,7.691834022541943,0.8340007769849858,1.1482695007718762,54.14147030261005,2,Moderate,59.43841891063797,2020-01-02,00:15:00
0.4933376489778999,-0.239415558974352,0.0500799843143843,36.44051739092963,83.57864864506402,8.042368871711727,2.57513162068335,1.4630864563683044,49.830067212619056,1,Minor,49.80925115121754,2020-01-02,00:30:00
0.0196908743744107,-0.5764724043631468,-0.1714557745667677,28.675084370075613,56.04912154594011,3.638812026194047,0.7507754130657223,1.4843546579734586,0.0,0,No Damage,0.3678644944284697,2020-01-02,00:45:00
-0.1297338932319106,-0.0396064966890076,0.7654752837133856,27.10603712761069,89.17532631172787,4.218084411750201,1.9402678860651172,0.2048903249197229,19.822580295801654,0,No Damage,15.77317057834071,2020-01-02,01:00:00
-0.1275068922896538,0.2620499882193668,0.2947553071561603,20.50276633311673,43.00966354082824,13.015936075021775,4.290793057777875,1.0719517683895998,20.23241742374712,0,No Damage,28.33756815375448,2020-01-02,01:15:00
-0.0004813208034222,0.2778139619200871,-0.0693114904065648,25.750204285122777,58.64875833088449,2.394585472922629,3.665604575077163,0.4916510972673301,31.92095022712656,1,Minor,33.37920958802308,2020-01-02,01:30:00
0.1218955490922493,-0.1439957089271288,0.6748227744584551,18.499249302269867,67.53687213370355,3.612144279192668,2.607155334680454,1.009038328235398,67.57654667325357,2,Moderate,73.74814083047478,2020-01-02,01:45:00
-0.2147212422697911,-0.0312705695816518,0.3126848653742846,32.81532980491316,47.40723547415761,6.767734640148436,3.0197430454117,1.3783100326511868,29.091526112740496,1,Minor,38.960412747403296,2020-01-02,02:00:00
-0.1324841860136452,0.0829006132561115,0.0080459944472761,31.892939885318462,81.95905529020521,8.156737747428922,4.856420533419167,0.3919313449833694,19.666975401543525,0,No Damage,23.697285105844927,2020-01-02,02:15:00
0.0058056084316765,-0.1313715908594592,-0.3363418627817928,15.798689215709382,31.22332227227153,7.718694921707322,1.330943710024,0.2924486167751751,0.0,0,No Damage,8.366124048973294,2020-01-02,02:30:00
-0.2077576131831948,-0.4995758825272072,0.3713601941462806,23.912426542877103,43.82903875616262,6.363434870427339,0.7401669084406391,1.039679456473272,30.69534145844693,1,Minor,32.282016921737274,2020-01-02,02:45:00
0.1790029047036085,0.1364617734047292,0.4533191700509363,26.24242796759564,47.08474969927534,10.93995180298769,4.189493612810592,0.4598690326389324,0.0,0,No Damage,3.448554940264809,2020-01-02,03:00:00
0.3073593418000312,0.5241216354430539,-0.1143674442783045,28.751603216894623,42.555865426357634,14.281423544832911,3.3888505461549263,0.3886768299985277,11.341406320485184,0,No Damage,17.424789972403822,2020-01-02,03:15:00
0.2877336539875016,0.2083326924301415,-0.2480635319388491,24.994356305599265,34.46545942059642,11.885217062798864,4.429805407749431,0.8509998479799432,57.2612381468702,2,Moderate,65.03147988284579,2020-01-02,03:30:00
-0.0288486299431283,-0.7564083171175935,0.0710158351691521,27.206163654636672,37.86610638622905,6.227984691413245,2.7800265902997072,1.240457316304634,29.874146227839,1,Minor,30.209296404705515,2020-01-02,03:45:00
0.188780144392383,-0.199725597166492,-0.3442205973419318,20.13435644532908,71.9567788293406,13.876863066614115,1.8172851156709764,0.6138537929674656,50.71699280957271,2,Moderate,55.93047851738816,2020-01-02,04:00:00
-0.0799486617367523,0.211705768992354,-0.2561526786706469,22.845389384668,58.021619117258,11.834434082753704,1.6203273597471226,1.0816786597672503,53.33572397278499,2,Moderate,53.02309649287815,2020-01-02,04:15:00
-0.0239842587513551,-0.33884578658149,0.4231455440659852,34.21793931268646,75.07646052172278,14.92341225905076,2.807149509956899,1.1322229374517605,34.535746628822594,1,Minor,36.85275481430819,2020-01-02,04:30:00
-0.3812695840425336,0.3700578878840405,-0.5123997737004593,30.92655572544253,64.90439255759749,8.304790707642143,3.964458646742641,1.0183708369830164,58.932233105931225,2,Moderate,60.42428062656312,2020-01-02,04:45:00
0.2142879991891335,-0.5212079211998902,0.3915960142250106,21.53833361973586,63.2070555315213,8.878753948488677,2.9102268648153102,0.8169929088976944,60.861708424647006,2,Moderate,65.94317096160883,2020-01-02,05:00:00
0.6504719319473823,0.533025276083912,-0.1168806510266669,25.90839898895993,65.44244094933677,8.748727767601428,1.5999642757644978,1.2846667289496183,63.93724061379122,2,Moderate,69.24400418177504,2020-01-02,05:15:00
-0.2432967115052967,-0.083118861216454,0.3830777875717361,30.98418183497856,38.84533344283915,1.0183690770657372,2.0697323159223115,1.36231214455643,78.91232354137318,3,Severe,78.24247144048894,2020-01-02,05:30:00
-0.3196005905773286,-0.1648408046704219,-0.0473900509175294,17.056967848145828,65.55197825524937,0.7501820078802429,0.6338530727084792,0.3017890904641016,67.49467882767496,2,Moderate,69.20806071570628,2020-01-02,05:45:00
-0.3807307153402426,0.0513046071539549,0.1193989713345391,30.437128361395875,37.45764265986171,5.542415848830931,3.63331911293556,0.4000277223458487,39.06345669097469,1,Minor,33.46887414110044,2020-01-02,06:00:00
0.3484838836917238,-0.7644138306892971,-0.4052777486255151,20.8021680973738,47.73270283719227,9.898789226218035,2.6772395476534347,0.980045652877484,15.648409694068828,0,No Damage,19.800102290095754,2020-01-02,06:15:00
0.4160635328712505,-0.1031969107179658,0.0860477367790541,28.776201775285376,79.4232987409226,8.846667463953048,3.750065530531638,0.4489971669400562,75.53739224526086,3,Severe,75.92451225622507,2020-01-02,06:30:00
0.1574131847558594,-0.1570023978445337,0.1989983836741081,31.038508971161235,52.39724376009781,1.1006411828838691,3.3712257251251216,0.3014427385940741,57.42592820899637,2,Moderate,62.18310578641548,2020-01-02,06:45:00
0.2228559734014019,-0.1023595523056308,0.1846703357143036,20.429720850670705,85.37244945653927,0.8573710595806605,4.702255794974441,1.081040970342944,16.507598144554446,0,No Damage,9.767206743972489,2020-01-02,07:00:00
-0.0330370157357339,-0.1515364594644954,0.0678311993105446,21.307216195472133,38.61822034067939,14.761510738420515,1.5070734185523944,0.3629441830598171,17.369823733351346,0,No Damage,22.589349318820823,2020-01-02,07:15:00
-0.0474049329966234,-0.2751779086294618,-0.0934412603502637,22.65719014032497,81.09697750316424,11.45184669441372,3.481792815933884,0.2103961525050862,36.96471676220337,1,Minor,28.33878326874622,2020-01-02,07:30:00
-0.3595282511858018,0.0022368873033765,0.2543549207521743,26.235595439682832,38.08984702436521,1.7977574672532044,3.88792337849293,0.21476688221541,24.56588071936499,0,No Damage,27.87716133161324,2020-01-02,07:45:00
0.2072850383266102,-0.2173318526402438,0.4429527062807357,17.671847109654003,38.53772103113735,11.32105183932591,0.8980078171187753,0.7445869985606236,68.86643598759153,2,Moderate,73.97916337219962,2020-01-02,08:00:00
0.0428809031157177,0.1187779456681026,-0.1562919408316098,29.324514698296795,37.6607492810246,5.980634015085748,3.751662208345595,1.2456334704232086,49.70400780613531,1,Minor,55.111750883996095,2020-01-02,08:15:00
0.4098877071900885,-0.503508838390495,-0.0747097648406408,30.864319817608507,71.16444075212517,11.72777677576658,3.0245056086842137,0.7751785480168297,2.341493273762204,0,No Damage,4.4352881814391365,2020-01-02,08:30:00
-0.1016006588511296,-0.0908952197880745,-0.0255420732702623,20.480148577216568,88.71703628145279,3.923877567594329,1.0379465189541994,0.8127836159591029,45.72928656834161,1,Minor,47.66109733035263,2020-01-02,08:45:00
-0.2472421483977689,0.3355684050998933,-0.2818354876498358,20.50014569857958,79.04867150682793,1.0410897934390528,3.798826415421136,1.0568838818507214,45.351161681459125,1,Minor,54.9309154924462,2020-01-02,09:00:00
-0.1167610697196803,-0.0115795309304174,-0.7240099166509305,21.908310214459423,83.01511227119758,1.9048567197875768,3.405004568916633,1.4620924126650283,2.301002645816517,0,No Damage,0.0,2020-01-02,09:15:00
-0.3799545477057891,0.228829273691082,0.0915860835502556,24.214930445258297,42.2339356624783,5.730459476953007,2.3853926953401734,1.434183965288495,40.62433734526513,1,Minor,50.91481198230234,2020-01-02,09:30:00
0.1706803221067507,0.1403993960615831,0.3872221877703436,20.28348552124968,73.2963623742326,0.3674220045739801,1.3596445114599762,0.1936388786885071,56.39192016934729,2,Moderate,54.80680960755498,2020-01-02,09:45:00
0.2577079120352962,0.1202588962136507,-0.3250569694811694,24.85278316780313,61.75742917206475,14.553193585406175,2.3631884171475463,0.3718565625085821,34.113788930000354,1,Minor,30.331305447062576,2020-01-02,10:00:00
0.0651016423342751,0.1305529322257415,0.0724362878719309,20.736791838338807,75.4343418905244,11.262161006446751,2.896943617602356,0.2646747831255552,65.71190099573158,2,Moderate,69.99779307350435,2020-01-02,10:15:00
-0.7070637429616793,-0.166325620585689,0.1329309529321512,26.32406604273997,57.55885949096157,3.836636675867336,1.32754771214992,0.9925075125635278,28.44239399180938,1,Minor,31.400548693906916,2020-01-02,10:30:00
0.0882102857261987,0.3334087941620375,-0.1104477639284588,26.154776226687865,78.08832979795586,11.401462905881056,4.529413741439059,0.2514739085819847,38.04568730015325,1,Minor,42.82289871715624,2020-01-02,10:45:00
-0.0385512853759227,-0.0029561549377926,-0.0652264163367398,23.662017224694218,34.48651873419735,13.396459726837747,4.844144815562273,0.6045280561222389,14.469953825026764,0,No Damage,18.317135533555344,2020-01-02,11:00:00
0.1616400072150823,0.0030891478924024,-0.0205817026665968,27.88079339711961,78.9201676089238,0.708115161920217,4.600896490143461,0.4835136683648302,42.02396382152705,1,Minor,48.18410025909543,2020-01-02,11:15:00
0.1025912434749871,0.0306871465665708,0.0434439324395273,21.48163186188193,46.854767640795714,4.536960648006208,2.058396802351554,1.4893704160878944,13.869811289282282,0,No Damage,16.117297043341978,2020-01-02,11:30:00
0.0991474135087821,-0.4868834271183349,-0.527827296786823,24.647172227956744,41.27752606926002,8.904526063654313,3.9064687229495503,0.7862984888473625,48.32433274891565,1,Minor,53.260766053847775,2020-01-02,11:45:00
-0.3687982196877615,0.1782984374388035,-0.0293887769908558,24.079355661335267,75.31194643494503,11.296377488320305,1.2404003770469871,0.6662390326372285,28.087547614858767,1,Minor,35.956543773166246,2020-01-02,12:00:00
-0.4742499301759279,-0.0894835609192931,-0.1769669786189155,22.384518776163716,81.86669399781323,13.761697263550442,2.428819073310225,0.1295672777263119,8.570174158779068,0,No Damage,7.314199777867965,2020-01-02,12:15:00
-0.3834771934445598,0.0427891645667789,-0.3371196044996868,29.80242793922161,60.78713569387438,14.70342613473718,3.249645541692573,0.2191288682361779,31.00531910461825,1,Minor,43.16305073999789,2020-01-02,12:30:00
0.2995536447163635,-0.0304098325603342,0.2055389674291979,25.075432127168405,31.549329466141018,1.171577565218066,2.3978353856018635,0.648416245048491,54.16130955303922,2,Moderate,61.3035621738544,2020-01-02,12:45:00
0.387241547297169,-0.4084171984786978,-0.1024291505376858,25.44193709681005,60.93100664348504,9.319210899030018,4.287799384172813,0.1090080626938128,32.342805714278526,1,Minor,30.81009995141838,2020-01-02,13:00:00
-0.2569471614915967,-0.2018613267660247,-0.0711762250012709,26.687827624780308,38.7779210471336,5.2888990522193255,0.592555740418902,0.8250704091802812,27.229915358682767,1,Minor,35.6529221302774,2020-01-02,13:15:00
0.1403644349949118,0.0018456651729407,0.0526489925448591,31.41746214849325,84.43856141148564,10.324617034190732,1.431004305589486,0.399876094324412,38.08187069357885,1,Minor,51.31326557586191,2020-01-02,13:30:00
-0.2327923626691015,0.2075418536442953,-0.7108223966228074,34.16771172284939,35.57610168546168,11.986712683781947,4.044677287724854,0.7294472716366027,52.18207245649881,2,Moderate,49.33758823928913,2020-01-02,13:45:00
-0.0446011473946449,0.2382085175072208,0.2537495204065554,33.50507595857866,35.46327300687129,2.2915616760073254,0.8294209242769678,1.4388400844664937,30.79566529837618,1,Minor,31.885920688618924,2020-01-02,14:00:00
-0.6139150654851485,-0.3515930868181103,-0.1034901641832449,18.689957227665968,84.42698235361092,12.440369076946794,1.9901414512442528,0.2826539283798603,69.42859192183614,2,Moderate,63.91221316761112,2020-01-02,14:15:00
0.09517707632477,-0.1646165733750639,-0.39073181655249,28.070311844360138,60.63422584930062,1.2635004075957643,0.5842025555480562,0.7259870419070783,36.32414057194227,1,Minor,36.42287113969855,2020-01-02,14:30:00
0.3513957279562382,-0.2454155180942967,-0.3705617251844668,20.930877976402645,38.99884604982647,10.25895505171214,4.774092827289671,0.1631997414539628,9.973751647520704,0,No Damage,16.405420827273595,2020-01-02,14:45:00
-0.1641336153869331,-0.0092827349089831,0.0162318481295714,28.155350677051796,64.25576721958726,2.790455252645219,2.344316076431394,0.307611798563811,21.711003493507725,0,No Damage,11.705566587435843,2020-01-02,15:00:00
-0.1595455333553666,0.0782273647010203,0.1275705319713098,22.25911618133572,37.83865552141869,2.986804265703167,1.0446300859529067,1.390135101316483,61.0678965452344,2,Moderate,65.93973975910703,2020-01-02,15:15:00
-0.1243856246645662,0.0126267171836838,-0.4131441407662109,23.409981999411396,62.37837235569588,5.095131233823324,1.95828669068982,0.5113538613075508,47.05393736936545,1,Minor,50.356736604800325,2020-01-02,15:30:00
-0.1581216125430962,0.1172478994989773,0.2366200851466581,22.972668443674703,63.62441520393303,4.986855616753034,1.62573268293313,1.4777766464293671,66.04252343083735,2,Moderate,74.26838526649266,2020-01-02,15:45:00
0.4776798994057997,-0.2879532756973531,0.2909977353436168,30.6850204362516,59.33920377140552,6.995667630811647,2.6041650366904574,0.7794242096463272,54.580936399395846,2,Moderate,51.63324214618241,2020-01-02,16:00:00
0.2697016297882627,-0.0780028888646619,-0.1486434196693558,18.974133647324816,33.258171269295495,2.346721399299425,2.350374734768054,1.3185984594094564,48.58353666128878,1,Minor,43.48210406144701,2020-01-02,16:15:00
-0.2204321555365224,0.1877232054188838,0.2487590448043889,27.4912089939926,30.900923432713626,4.666624468984147,4.335679947566964,0.2390372342755305,38.71753702724848,1,Minor,37.06916807028526,2020-01-02,16:30:00
-0.2980459302185995,-0.112598452913169,-0.4519974102365915,28.059900804259648,58.4513945639845,3.658279300088977,1.5602511660161336,0.9467098082092796,30.435100084996463,1,Minor,39.4027732658039,2020-01-02,16:45:00
-0.1002255133985708,-0.1571525589206857,0.2546668512895531,26.9412599644872,45.17556844979229,14.746463908794055,2.869083033150219,0.1914711939253978,0.0,0,No Damage,7.602293354818837,2020-01-02,17:00:00
0.2802468597024324,-0.0537284848485321,0.2553858214802476,28.488958901990287,46.73775283617863,0.8806450573678021,0.6413806433607566,0.5663070586403564,42.39657480379935,1,Minor,43.24585467423445,2020-01-02,17:15:00
0.037665175667355,0.2853740585926318,0.3512280993672574,22.272544879612568,71.92599435507708,1.6144700060977368,4.376507228249544,0.1023069406754092,0.0,0,No Damage,0.0,2020-01-02,17:30:00
0.3589789001244868,-0.1267660247879338,0.2548524320558082,26.950024544369796,78.04516272994121,0.7894497947729973,0.7431064516744781,0.8998602690053533,6.471371548679528,0,No Damage,5.758662956359928,2020-01-02,17:45:00
-0.379512494540924,-0.1838657989464865,0.0807412852477058,15.103616137350553,89.38152992872263,7.086349292957,3.5875633030031597,1.3474538788084,57.96761768956854,2,Moderate,59.78071741900225,2020-01-02,18:00:00
0.1063674657697609,-0.2947512110819292,-0.3043045779949421,25.529821439602014,66.08475039511511,4.995643046873902,0.8118103650466149,0.5841037434779424,0.0,0,No Damage,4.256791540535735,2020-01-02,18:15:00
0.1163059221209001,0.0333585121916433,-0.1085030219230958,24.381933195235987,68.24480281268802,3.1002048545363525,4.564652954793397,1.492820557863165,68.84155111351987,2,Moderate,69.00541598750253,2020-01-02,18:30:00
0.0233686454750577,0.0573711032167414,-0.1991972627528716,24.839044037409543,77.60923768021021,5.732851645486857,3.555516246457741,0.8395688054437898,43.060288624872896,1,Minor,44.66439821302095,2020-01-02,18:45:00
0.1033358486497485,-0.4000186399710011,-0.5310959846332828,33.16439916702579,79.4415369088332,12.804547130246068,2.748965295028711,0.4451508982334208,47.727080553669936,1,Minor,47.80301427194042,2020-01-02,19:00:00
-0.2786008615597158,-0.0261821735727836,-0.3283464098535945,20.820857098274757,38.25355810971825,5.744956572723366,4.397444710163807,1.2327827493288068,26.432606820739096,1,Minor,24.93056469444641,2020-01-02,19:15:00
-0.0764247332135309,0.2139205151693706,0.0024156663825235,24.47062285565396,63.47668801618974,6.992359012771249,0.8420660880157173,0.9584227995537132,26.582676788762853,1,Minor,30.943830423865823,2020-01-02,19:30:00
-0.3723500327773802,0.2265787049119901,0.0116774603440704,24.47347145078039,80.04650733289947,14.354743461755907,3.7081349930832856,0.7837002629375024,17.35231876178895,0,No Damage,11.05684178675742,2020-01-02,19:45:00
0.3953031374965502,0.9183124830592,-0.3447199595033979,24.017306233165165,36.76526436380111,8.623495782068865,0.8165804110263182,1.1251369010254937,37.14757031544397,1,Minor,31.761356366256525,2020-01-02,20:00:00
0.1152666143026351,-0.1767710298181568,0.0441585347791653,26.35357203520637,81.6289777169334,13.03217874826024,4.066265348048025,0.4746463471031931,23.090888243190967,0,No Damage,24.08669089885385,2020-01-02,20:15:00
0.3943527750342895,0.0124034281036062,-0.1942389899168314,15.717971648367584,70.16176161553621,3.2530651329911158,3.4211267288143867,1.2145181816904231,58.17406897355679,2,Moderate,63.061918771226274,2020-01-02,20:30:00
0.2423960445862709,0.0638853692767068,-0.0246839811466221,23.382136880442843,51.7114266501037,7.478596617414187,3.0758325138218616,0.813746028624987,0.0,0,No Damage,0.6334546900180886,2020-01-02,20:45:00
-0.2181989557245103,0.2653728724766905,-0.076934807528567,33.02732102052056,34.47434674842321,5.282027647548263,1.2339529443563944,0.3858259486125031,37.81252719233727,1,Minor,35.274635935952006,2020-01-02,21:00:00
-0.5442024996273833,-0.0300706586693566,0.4656541335173113,24.133579039437613,77.6469524093717,6.815510244995265,1.4160121058387416,1.4954070858163493,54.10742964411851,2,Moderate,45.90586822600321,2020-01-02,21:15:00
-0.4267177919012906,-0.0464534125915643,0.3156637575995,16.414361768184506,44.658078171316944,6.665279394730345,3.1572529892145567,0.2306354169685767,24.31788882751269,0,No Damage,18.31496288674362,2020-01-02,21:30:00
0.046813018798906,-0.4062911554085968,-0.4703014603589392,30.72670137103257,30.055872498269476,3.4065840575070543,3.414148074963756,0.109097054378834,58.09615210018433,2,Moderate,59.94071574407718,2020-01-02,21:45:00
-0.5187234956163302,0.2934592239912031,-0.2940158217334771,29.587707122165032,45.09755423467404,14.931785045794893,2.741250885646213,0.7631363915007743,68.88426508121152,2,Moderate,71.31628571227688,2020-01-02,22:00:00
-0.0247228101941525,-0.6389796799031344,-0.3993562778598402,29.277468066759337,32.26793238861002,5.668913898873548,1.2840428127986256,0.6589162769707017,35.35687134719169,1,Minor,34.49816008814341,2020-01-02,22:15:00
0.2787090586222517,0.0693635129293794,-0.1480970362283651,15.70892120951362,31.93095621687932,6.99862331835597,3.949620597889669,0.5089407724122701,75.44994750485189,3,Severe,73.62320760980562,2020-01-02,22:30:00
0.2440457250257367,0.4261414479479204,0.418973555061247,26.08708866032528,86.88532318677083,10.333220837137006,4.163175621276377,0.5517470042730764,0.0,0,No Damage,1.7253360549290666,2020-01-02,22:45:00
0.1442772577450693,0.1613595751645076,-0.0291861518116478,19.435700466021338,78.41825259192535,0.4652400741096874,1.5772056427348904,0.4024340317956187,13.36670334120764,0,No Damage,8.472832267223247,2020-01-02,23:00:00
0.128174624864422,0.053126176225097,0.1303348600929492,31.079536025643044,64.81170818237237,8.801715519687296,3.1147388000541683,0.621112363455389,50.7325865877411,2,Moderate,54.71981278995288,2020-01-02,23:15:00
-0.3403586142155221,-0.4544932805334927,-0.0103219686789308,20.5641174315418,44.51324061154976,10.881761978431484,4.861543364979743,1.4384080216811197,34.012113146599944,1,Minor,38.50467603121559,2020-01-02,23:30:00
-0.3228719452913072,-1.1487544967242134,0.058837561024597,19.3422873458834,77.02570965887294,11.725750874640337,1.76253853101765,0.2700393108654852,0.0,0,No Damage,6.378458924214025,2020-01-02,23:45:00
0.143480797887363,0.2023069545543406,-0.478460211664911,34.080285417470044,38.0525953667985,7.515094427721972,1.9638127979244584,1.0098938514798628,87.93676429981979,3,Severe,83.59582631718224,2020-01-03,00:00:00
0.0760353050626385,-0.0661850435573183,0.2446819069343269,22.8104626476643,73.2797231157057,1.2621822173714277,0.9323251758542652,0.2852448488179211,34.81849241070955,1,Minor,29.46572015261609,2020-01-03,00:15:00
0.0621756352861311,0.0020381572484064,0.2284364219504721,21.972580850292413,48.587781527382994,5.867676855787481,4.977887870940322,1.494023011015914,68.38275820843005,2,Moderate,67.17949985348908,2020-01-03,00:30:00
0.0616762375676872,0.0530774033662126,0.0885100668170023,25.95199106013345,68.47667998166452,3.908974845033097,2.2329467869734083,1.4153416550645794,0.0,0,No Damage,1.9475178564064308,2020-01-03,00:45:00
-0.6364699070682888,0.2014785031185035,0.0143912348855551,25.98172838002239,48.21130879003303,5.4343580417161,2.2309330547512727,0.2599895330887529,26.19352574548366,1,Minor,30.396284787450533,2020-01-03,01:00:00
0.3529150167773262,0.1522306746412476,0.4888411121345269,31.252640775576097,45.111839839401846,3.1224364921893573,1.0537029053174385,1.4727766763468275,76.54706898019941,3,Severe,77.24246742891874,2020-01-03,01:15:00
-0.3927947853521878,-0.2533512203543443,-0.1713816829044704,32.38041421760605,32.57551691445049,14.197143938051305,2.4758102014056886,1.3776256339028687,41.76670147329077,1,Minor,35.75339094350743,2020-01-03,01:30:00
0.6390056528612885,-0.1896730878284418,0.1625302896589616,19.88253929770632,60.29668384644985,6.594026205436542,2.167413321834591,0.3444435679503667,45.85845847450312,1,Minor,41.64527945563044,2020-01-03,01:45:00
-0.3348890015058023,0.714915290210235,0.4750547508573992,22.6795776331266,65.6191479136571,9.255647579052964,0.7220620149338187,0.9674107912863988,63.744650592061,2,Moderate,68.54464820235819,2020-01-03,02:00:00
0.3105039323225902,-0.4704466889859653,-0.0629158057226548,26.04924650019676,64.94408444255727,8.359896605284499,2.886051178328988,0.3797209893491071,41.2328104710521,1,Minor,41.23263300783496,2020-01-03,02:15:00
0.0417372858354608,-0.2194726782796578,0.0129239799092588,26.644199532416003,46.06522703175381,9.774972227015756,3.097558894434603,0.6068661719602244,22.17629563048048,0,No Damage,18.42289301521236,2020-01-03,02:30:00
0.5588841402022636,-0.4143215376818093,0.0406722200068929,29.728156941203032,68.83981715005233,11.034635093192604,3.1859391031307966,1.4607088257994625,29.21112946968652,1,Minor,32.11336152974733,2020-01-03,02:45:00
0.1527854039446174,-0.3269550882081471,0.3132893920374268,17.213399574736904,88.81748878639429,6.631188378443763,1.547935702451703,0.2393975803385871,31.66839760216338,1,Minor,31.80928506994368,2020-01-03,03:00:00
0.4223491861169076,0.2928940460047475,-0.3081980620265167,26.179706391101035,79.86524469163366,5.857139304004211,2.103940905151718,1.2077411557500983,22.924508721005427,0,No Damage,25.84730929020345,2020-01-03,03:15:00
-0.3340064193635488,0.050043510640692,-0.1500800588247637,26.896285136376303,87.78996257131435,13.9803278215641,4.083632894704129,0.1334340972304764,69.06067356974543,2,Moderate,73.04854610697768,2020-01-03,03:30:00
0.2859075233119938,-0.1947193693941118,0.1030345382358211,24.657775856174208,87.9763742864053,14.618897580064022,2.984108182604126,0.5765010433914833,26.41337882607376,1,Minor,27.404297722483044,2020-01-03,03:45:00
-0.055507883231779,0.3967469156317502,-0.0135828043743964,28.089636257422427,75.71062511862598,5.2979401854045145,4.066215353700759,0.1457566502714454,51.222696965373785,2,Moderate,58.064727515114825,2020-01-03,04:00:00
-0.0063377996414186,0.0293294790042035,-0.1704284757479187,25.02933709532848,89.31646259611145,7.009363706586113,3.596974427507819,0.3711824082195714,44.47659415869629,1,Minor,48.79122916185922,2020-01-03,04:15:00
-0.7782265123492962,-0.1384137621887593,-0.5397403053507478,13.65141273087215,85.84976827643357,4.099041149700585,4.187997401007323,1.2713848857788757,51.51959638934617,2,Moderate,58.41051600105608,2020-01-03,04:30:00
0.0947931763761386,0.1539326577355865,-0.1027275383142576,26.48564882489762,85.18953129294427,3.833718986578869,3.55147864606026,1.221493447716155,25.53080745020606,1,Minor,30.522650760902465,2020-01-03,04:45:00
-0.2275161079563755,0.4486429730439109,-0.0478413856964174,16.935537399072214,55.99603613759923,11.451236317754066,4.29494404178671,0.1651842930631247,32.09402064522656,1,Minor,26.63819906714536,2020-01-03,05:00:00
-0.2106357786071873,0.1649839815860437,0.1413290582485303,26.21959864552984,78.46815585429368,5.018223087105213,3.5919599487896265,0.6985751660244691,54.63101976412876,2,Moderate,58.283167744998046,2020-01-03,05:15:00
-0.1408425372101099,-0.172444728805847,0.1874353604244132,30.253642334115668,64.48775998602139,3.714863509132171,1.9707020422101136,0.4969123109363424,30.99552679030769,1,Minor,36.152595445805,2020-01-03,05:30:00
0.0138729129539715,0.0248627147230965,0.4219400943849646,31.49360214315937,73.20052125204674,10.094656990379722,3.3413427240783733,1.4515244692762954,53.9479897316052,2,Moderate,50.14293830220915,2020-01-03,05:45:00
-0.6141255021944155,0.251610223661442,0.2444194436749555,29.29564543595206,63.383690371903946,13.295346196502813,2.209239219714968,0.9025041058606754,51.26841502765227,2,Moderate,48.60247478318052,2020-01-03,06:00:00
0.6027579876961533,-0.255221642581794,0.2165528342350993,20.54355402546781,32.82459491215786,9.520279815854265,4.663929573634604,1.2268101802474738,41.7186925601613,1,Minor,44.20463392501883,2020-01-03,06:15:00
-0.230981883627561,0.3479769327297066,0.2068706722756459,28.95978658018748,58.16198919076832,5.4976772879401805,2.4128002035538305,1.1424275797017962,83.2930554474647,3,Severe,96.45019655699504,2020-01-03,06:30:00
0.2809634623392854,0.1666799338522866,0.2533761074353994,21.400448713514148,33.049202755489496,10.39940724430244,3.680448296170726,0.9700404238645852,23.342951183665587,0,No Damage,25.193191131396144,2020-01-03,06:45:00
-0.1041647945568795,-0.132054056198522,0.4239216293751786,36.62317485414286,78.8709624485986,8.480811991016292,2.498522759548698,0.4743347802368864,54.31863380578624,2,Moderate,56.03505199029385,2020-01-03,07:00:00
-0.2501930858273826,-0.1432194511943847,-0.362411187622002,37.18664424402574,72.13687302529019,7.280195712095524,0.9914310245797456,0.9139077706222518,31.289377965652243,1,Minor,36.77144579200042,2020-01-03,07:15:00
-0.6513677090523718,-0.3659127194796264,-0.0250648801751891,22.90804355517949,65.86827247635209,11.66992966857735,1.152126282119768,0.9443144734467792,35.50509431421035,1,Minor,37.76078744300827,2020-01-03,07:30:00
0.3444000132386512,-0.3471652691741609,0.364201685521855,37.75114828102595,54.01987191092083,6.722941203001019,3.4811980204383848,1.340396284361735,71.44298602679342,2,Moderate,72.21933416129778,2020-01-03,07:45:00
-0.1837478018744968,0.2907331139661496,-0.327880025024914,23.397418194940716,53.580165133817005,0.4608595613168864,4.762966649035645,1.2649622973921824,72.41014381576659,2,Moderate,68.84198673242373,2020-01-03,08:00:00
0.3810344197064448,-0.3433535099386527,0.4503379597086399,27.98503697706429,60.28344419945073,0.2148999351064634,4.303065518070556,1.365829166395624,21.78734467857693,0,No Damage,23.2196942493182,2020-01-03,08:15:00
-0.3531372610471278,0.1091886834981107,0.3726294793529943,27.363121665948555,81.4022071578378,10.454203905388509,2.1008302007857407,0.8413270666233599,29.105145480657043,1,Minor,27.38681147448357,2020-01-03,08:30:00
0.4526140042938144,-0.2556491915474249,0.0751815437866685,22.855727481299244,82.9982060235085,14.96301299275276,4.905561021285021,1.2370276337992083,39.11775426676338,1,Minor,36.54955922103933,2020-01-03,08:45:00
0.1371752474581165,-0.0982543974545432,-0.0741884340376274,19.67992993900011,55.11473473910547,12.556703226992454,2.933017872507775,0.7205873229715244,15.313985457935708,0,No Damage,14.99087394187499,2020-01-03,09:00:00
-0.0643870640100388,-0.257409605425928,-0.0957694689637582,19.860879322732597,84.78992607450357,9.985567624784755,3.0450090530103915,0.7666723662746059,13.609612257515671,0,No Damage,16.20526883956776,2020-01-03,09:15:00
0.2220840189511735,0.1261144705337574,0.0043972721268983,27.985522619126435,89.45681153288947,12.876050708733285,2.8136108414262533,0.9825063579789112,1.6484994222985776,0,No Damage,5.893634835102624,2020-01-03,09:30:00
-0.2801583689135926,-0.0180982339998066,-0.3223989282209683,27.304842044785097,83.46878101462892,7.137297196437973,2.275059061303942,1.37030585613811,42.601551493660885,1,Minor,47.38842657722312,2020-01-03,09:45:00
0.2194735723945257,-0.5825719062209739,-0.2110377986820658,28.824787918238336,62.61340353404398,7.130738336438174,4.839701050674655,1.2592302469132512,16.327156278691604,0,No Damage,23.826508459698527,2020-01-03,10:00:00
-0.1979875745390741,0.3945075632967495,0.4055518234889702,32.02449790197855,36.30392619262128,13.578654985863285,3.4877843093649896,1.1124559886455376,37.225537874373295,1,Minor,38.90449426057706,2020-01-03,10:15:00
0.0081210483471779,0.2638427868991735,0.4321001640763509,28.62737302491376,49.422759169405545,4.793891261748857,3.982502922044973,0.2218261870515053,60.860946272843854,2,Moderate,60.936210440079975,2020-01-03,10:30:00
-0.2294653262817536,0.2770432694742022,-0.2718544690450079,27.925817343212717,35.87125513370166,8.389705375855167,1.3840400558552262,0.6207242066706368,32.52386112276634,1,Minor,36.594565948563655,2020-01-03,10:45:00
0.1855868437373829,0.652521026224304,0.253528480207761,32.3857402839683,33.38064630890227,0.0989368892034986,4.73334372047526,0.2359167070230124,65.24218210062553,2,Moderate,70.62823619637877,2020-01-03,11:00:00
0.037345467414347,0.1214361685547996,-0.0056710885351728,17.904266682657976,46.18198751368746,0.9571519491730168,2.457147433490434,1.0449389282585,17.0089013160568,0,No Damage,21.3097567843236,2020-01-03,11:15:00
-0.0043815921253381,0.346113441428019,0.1060728048249607,17.273365524414338,78.16704524128986,13.712664067970698,4.286246968045153,1.1909681983155314,17.035002507149837,0,No Damage,18.602119647343525,2020-01-03,11:30:00
-0.1931600965590266,0.0845023225310837,0.4834090383190023,25.34730702530309,81.4447003390456,2.4655007670324727,4.224037464562812,1.0457226239864066,63.64943750588248,2,Moderate,55.758876820117976,2020-01-03,11:45:00
0.179503546638328,0.1812061444995087,0.27577060080014,27.31332516449705,70.39928036240394,4.113797030005165,1.5627755200700495,0.3120753824342279,47.8551078147752,1,Minor,44.256309867654245,2020-01-03,12:00:00
0.0405112131872202,0.0541847035552727,-0.0673676571007294,23.79672214640583,37.57035726964968,9.14049725176993,4.061224974843277,0.3558683045198472,20.0013233717288,0,No Damage,19.311864150788143,2020-01-03,12:15:00
-0.1479230455245288,0.065970256436915,0.0167716061451823,22.706918788594983,48.0695131990736,14.258785362743076,3.0131606336626198,0.5037677182843255,30.51751186812622,1,Minor,27.29406857324072,2020-01-03,12:30:00
0.0564167746540946,0.1876410151895615,0.2780822930159597,30.816057310105904,62.75486269489125,4.792797013445468,3.263851342411008,0.3359295820712778,46.277698172349226,1,Minor,46.74013719695536,2020-01-03,12:45:00
0.1411208666656229,0.0902060613079483,0.1035590312156348,28.052479807323344,75.42356244292418,9.08911459744357,2.087346435227475,0.8070008532470739,61.58600025000421,2,Moderate,54.355623442903,2020-01-03,13:00:00
0.1192517768810179,0.1390638355522812,0.0708848818158844,23.86620252951232,56.75189178292861,14.407163315111395,4.957351095262235,0.946259699208822,63.64027280322408,2,Moderate,70.33102591193217,2020-01-03,13:15:00
0.4228409779610704,0.4994041442876302,-0.2510095036133134,19.45746962814817,35.09417912588748,12.585079282582573,3.3015063178100554,0.4710520796897423,12.845798187923872,0,No Damage,5.165357316638323,2020-01-03,13:30:00
0.0623921773156113,0.1927066460556526,-0.4694589671817458,23.41966349772992,46.93076070209464,0.2484002090675402,1.0596955615985708,1.4754131943703717,43.31033723616272,1,Minor,46.02585510376942,2020-01-03,13:45:00
-0.1038527267281629,0.3037340124850889,0.446184175509008,27.669528820663523,40.027409682155614,14.982200048732537,1.910187538587801,0.5017160917354524,47.11646960189815,1,Minor,42.21318615602366,2020-01-03,14:00:00
-0.1559667178304253,0.4967594977726364,-0.032658682990669,26.73971854106177,33.194901604923544,11.726321492135256,2.4956116059774374,0.1601605173053846,44.722830130665066,1,Minor,38.47440920305874,2020-01-03,14:15:00
-0.016497061948637,-0.0125032092473637,0.2923223268706352,19.807819418190725,82.39978619091463,5.726058032218113,2.261931063428703,1.1195129916143465,39.61388859288599,1,Minor,36.212139774611686,2020-01-03,14:30:00
-0.0841723250985802,-0.2342352826390775,-0.1799944121700163,32.9028345446816,86.18290285538873,5.433268801204964,0.5104341595233182,0.8866517635220704,0.0,0,No Damage,4.849053909229197,2020-01-03,14:45:00
-0.1393253361129672,-0.1614387129279495,-0.4863337699811152,21.361515853593158,35.56884794511929,11.33902774433757,1.3823245217091604,0.7495465314111638,20.66707424290722,0,No Damage,22.45096264367824,2020-01-03,15:00:00
0.4398256708056998,-0.4445809087320451,0.4776789934414525,21.384104850466635,41.01709675822023,10.752539984871923,2.082387244486416,1.2884573035327362,28.11256910093541,1,Minor,28.0775893193777,2020-01-03,15:15:00
0.299774943045792,0.4572293988651081,0.2613099952045331,19.159241110679453,83.44524704690308,4.6025892436217966,3.785114025773637,1.0244528384299243,35.85928302626255,1,Minor,44.7488732435433,2020-01-03,15:30:00
-0.0382518466039595,0.7143425773680662,0.0974138392561909,17.94450314552256,69.23239756208811,12.62128705566822,3.1181848181690004,0.3611620074520493,21.82157307504672,0,No Damage,21.33511641637748,2020-01-03,15:45:00
0.3966594877837863,-0.2058514579257798,0.188940763423581,26.334678345294517,56.015847775313205,1.6813321003647117,4.283840506841587,1.2188210597480331,28.828376685255265,1,Minor,29.28715862872195,2020-01-03,16:00:00
0.1439328176409035,0.028034367436832,0.1070047730541778,25.970300293693043,54.113110077334674,5.89080412265335,4.8765381461442745,0.4682036980160311,57.10644219861455,2,Moderate,50.54717017112295,2020-01-03,16:15:00
-0.4673557099497873,-0.2806181162092193,0.0846111072858677,27.77900614478732,75.84264744368187,3.533060149948288,2.6074467312697704,1.0769979399377478,17.341944020201257,0,No Damage,21.084507944141443,2020-01-03,16:30:00
-0.6203545732161643,-0.0943939675443339,0.6640142646517293,27.79131023815528,49.40773119307253,1.736641269404295,2.067397407791617,1.3327240906497313,70.05301787314778,2,Moderate,65.91756461613512,2020-01-03,16:45:00
0.3577726705683302,-0.0910879803922279,-0.2615014871696869,28.37239458616013,80.31958247659543,14.062338957656412,2.2525364423518432,0.897244641369889,34.52333727727943,1,Minor,37.80237699526099,2020-01-03,17:00:00
0.0358771847568391,0.1682060600776628,0.0592186996672623,24.16845426317681,67.76150272275325,2.4930734569311914,2.781882016516006,0.6852762941494144,39.19007726440029,1,Minor,47.55222434038252,2020-01-03,17:15:00
-0.3286882366918591,-0.3922769466218249,0.0374724742216231,20.869244460935228,45.23342908959733,4.134370699418112,1.9017517655569949,0.5189438020897778,85.49221517036347,3,Severe,87.37558941496674,2020-01-03,17:30:00
0.0624240245937795,0.44303306451403,-0.334751501621304,31.786416632662373,42.03306631889686,2.532491113867871,3.865746838066832,1.0089288435879538,46.476298983197154,1,Minor,45.93140779540592,2020-01-03,17:45:00
-0.1957554857222483,-0.1170083519346219,-0.1813733900375247,24.46407161609691,72.46022026846478,5.479858812010348,3.2699159560203896,1.288127182807132,40.03468453172249,1,Minor,24.751338618654938,2020-01-03,18:00:00
-0.0390861493172963,-0.0004932558824025,-0.449181961935726,13.45610883455944,40.890582982376415,11.174750582555388,3.2174229395977085,1.067928180238883,37.71978230097174,1,Minor,31.43656809214314,2020-01-03,18:15:00
-0.4272308016922941,-0.1833717450086323,0.0015629576675214,20.82233842529533,46.06484454475411,6.802318019314954,4.77511821506753,1.2257601751322178,84.0961204939356,3,Severe,90.67138904761154,2020-01-03,18:30:00
-0.2852521886462885,-0.3398584528905435,-0.0736698068895648,22.4629028726555,51.341845852247154,1.2860541018642602,2.414887248671126,1.0730336832826657,28.50732785864133,1,Minor,27.829602274907327,2020-01-03,18:45:00
-0.2416334834948148,0.0021357030158163,0.1034434953052559,26.10895772321848,75.6415455876429,2.6199120076782707,3.1476777250656784,0.6540473505641807,34.40900608546022,1,Minor,34.8073259802531,2020-01-03,19:00:00
-0.1858480848924105,-0.2863827428569142,0.0881508054909087,27.2191566548638,68.89751673174723,7.759924814418559,3.270445710558801,0.6934696184508335,50.002339073229294,2,Moderate,53.84927703231492,2020-01-03,19:15:00
-0.0849648433448646,0.3338124363730816,-0.0703027163571087,35.6087213851455,48.00829941547293,12.544077441208756,4.164659883790852,0.9438121941738546,67.81510128314801,2,Moderate,64.0246730002327,2020-01-03,19:30:00
-0.2981023079712383,-0.0738706390171796,0.3954097503250605,26.837046403394314,88.92654139422768,4.052295781525411,3.248696365795281,0.1691363456599703,0.0,0,No Damage,0.4004908609646522,2020-01-03,19:45:00
-0.1796248845884966,0.0604891920753966,-0.1853550588878884,23.766860820402663,64.3905703706427,8.155939781777219,0.8150851598377419,0.8953620693610298,34.33597102404619,1,Minor,31.43152852678771,2020-01-03,20:00:00
0.0328662953243767,0.0551078759931677,-0.2614447521200677,23.692619493093197,63.92797252513148,9.514238897587378,2.471852600310928,0.5935454256508441,45.05797733238544,1,Minor,39.18416648880211,2020-01-03,20:15:00
0.1974088421207312,-0.1045848379238339,-0.1528505522485082,30.31839820002365,80.50157598088603,1.6132207805500445,3.0870714804158768,0.1955488727536106,67.69726714419458,2,Moderate,61.087138778015294,2020-01-03,20:30:00
0.1960373737667676,-0.5062718104359664,-0.1050091796044549,18.332925506381088,51.159344597889785,3.654226508147441,1.4681047363572095,1.0822009062827047,100.0,3,Severe,95.36807848015526,2020-01-03,20:45:00
0.2174958840932647,0.0107200849421497,0.1033426421045747,18.078662531851407,41.91491606718951,11.0551051281314,4.645075397728843,0.4820447166839163,25.166929216217795,1,Minor,24.65104480107313,2020-01-03,21:00:00
-0.0792012044156167,0.2674615294281683,-0.3842592784297233,32.094091849860774,68.88283222968676,6.179830093312325,1.583805829135811,1.305115115831072,48.996444605411234,1,Minor,52.8620725074646,2020-01-03,21:15:00
0.3205855384658246,0.1783773859324227,-0.1392006219590302,21.09756761121571,60.14442170536431,10.404116443796084,3.093547348046259,0.7519258495098513,59.31548744093616,2,Moderate,56.69809989428232,2020-01-03,21:30:00
0.1519365822848656,0.2035510784374408,-0.1563786413974998,28.14887426943269,54.0657623620165,10.750256833239318,4.41255644188711,0.8159592038972203,26.262426470586,1,Minor,30.299738900696948,2020-01-03,21:45:00
0.3444619134064049,-0.1016847097656842,-0.5445877886066292,17.490509372473866,75.96627851138396,1.1630634018928745,4.8165264633078895,0.8527087578706672,42.27818161615557,1,Minor,46.27022896688087,2020-01-03,22:00:00
-0.5750502447277079,-0.4184827718339544,-0.1112545481283208,25.03336245514545,52.79107428411884,3.89913384508997,0.5700373491841788,0.2374494076147096,52.52233914388677,2,Moderate,45.89379721179377,2020-01-03,22:15:00
-0.0067595072311698,0.2883479688391592,0.595529882570072,28.99203882285731,75.44866768198511,7.060861180818408,2.617042449932136,0.4394512930944679,40.95119707679756,1,Minor,41.66713960348087,2020-01-03,22:30:00
-0.368231653635983,0.0986934442482328,-0.3343319679585091,25.50041066572335,36.00524171939949,12.846663359649964,3.709226949701544,0.6814879749952587,100.0,3,Severe,100.0,2020-01-03,22:45:00
-0.665995820665752,-0.2683407960537302,-0.0583134283470501,20.593817529514933,60.80782878664204,8.98084961385174,3.5266936313013475,0.954236101320494,31.107762577752165,1,Minor,30.711091077272435,2020-01-03,23:00:00
-0.0987084005922038,-0.1138866360734372,-0.0322013533473859,28.72839669788756,77.53970987758657,4.921652153630296,4.879057185231354,1.135652938730089,23.12922521559789,0,No Damage,23.260557199598587,2020-01-03,23:15:00
0.0541422508505432,-0.2388714217809034,0.0457139180708613,27.69870346818824,56.09927327804076,10.436814116612664,2.8908733762193406,1.1779559989718975,41.912403341372666,1,Minor,48.002868913644434,2020-01-03,23:30:00
0.5385133246513946,-0.0494632135308529,-0.1087225768126392,21.654674376247797,76.533680269253,12.580079462259448,3.215391285224261,0.7740519134758052,35.90857682281506,1,Minor,31.33046377725309,2020-01-03,23:45:00
0.0608857232861555,0.315378556743699,0.2158743201186778,29.112014652006124,88.50006189092164,0.6080627502000441,2.816132407269325,0.4400652311049057,0.0,0,No Damage,2.355145594502896,2020-01-04,00:00:00
-0.1995134507738576,0.058461059510253,0.0405070563144626,17.53228579621275,32.19637127984845,14.945095145309924,4.49054112173231,0.5776738186596663,57.890207340057685,2,Moderate,57.13855542215152,2020-01-04,00:15:00
-0.2677750169927322,0.0043927307405449,0.1705632562276295,21.425135904553667,56.24011104308381,1.9762112450673677,4.229235725962845,1.2468598507723925,53.89526957013547,2,Moderate,57.18996771641726,2020-01-04,00:30:00
-0.0065727193344942,0.215965104320032,-0.3192536148649999,17.004977258736442,30.932859517298187,7.204572528840057,2.8545738483708325,0.2279338729218145,30.56939494967497,1,Minor,34.30849182806886,2020-01-04,00:45:00
-0.3112290965832522,-0.0852024677268758,-0.1399249274100377,22.931148767646587,63.11487494421648,11.826570774196496,4.263926625905372,0.4089774850487432,23.10697002799516,0,No Damage,19.734535711202703,2020-01-04,01:00:00
-0.1789800082636266,-0.2992899224475574,-0.1630626831456286,26.414036702902116,66.61375793098125,6.504167136565282,4.480816335157877,0.7845417480812357,26.1427897244554,1,Minor,27.866237409452754,2020-01-04,01:15:00
0.353364959504893,-0.1791853548233056,0.0819660079533163,28.560684664253348,56.06987580172088,7.576381904604085,4.817368565183143,0.2512956306300326,55.66527417163414,2,Moderate,58.12305801666779,2020-01-04,01:30:00
0.4711030227332483,0.6421200766385645,-0.3504384522739842,30.563858112413783,89.80562619198005,10.574457789906,1.3879028943823242,1.0844349887575928,29.406442905622285,1,Minor,34.77089581394385,2020-01-04,01:45:00
0.3723752813689712,0.4974223107706966,0.3191178145623664,17.76907375895307,55.26219007016273,9.387139098703782,4.215128192915236,0.2397079704900423,44.98520543255989,1,Minor,55.18691780631249,2020-01-04,02:00:00
-0.2932497030981418,-0.3309042260072786,0.2722157626827041,25.7303381599215,49.2913670876817,8.956819429975871,1.3965588246631977,0.276822301607168,21.18236019824924,0,No Damage,20.84930183004397,2020-01-04,02:15:00
-0.5157699635007643,0.0130570812979841,-0.6244847249409532,14.98283109427043,51.65103549590855,5.249102029736246,1.1341392956503775,0.2879756770123713,2.4593212984374944,0,No Damage,2.2698843323719124,2020-01-04,02:30:00
0.116447140422139,-0.2130942105026624,0.2674758884296662,22.011517627200774,89.62309047188816,0.2094695845950722,0.6410939371973762,0.7152532353922177,47.59060636402909,1,Minor,49.504205053612544,2020-01-04,02:45:00
-0.0224473285905135,-0.1412331378688419,0.1702421971277974,17.879539384875407,37.52554636960063,11.74071012195162,1.2674638089124493,0.5930532310990047,54.586495514578544,2,Moderate,63.7161056022938,2020-01-04,03:00:00
-0.1770617094045408,0.3356691490285559,0.1294705773555435,26.19977329980943,61.38230217588501,14.537502757060086,3.8591930153735454,0.4960716897458838,27.51154182852538,1,Minor,13.998931574134852,2020-01-04,03:15:00
0.000321547699427,0.2667938507420652,-0.0489399242203645,27.373849895396543,75.21213206907427,9.932357492175829,3.627401800954489,0.6693368198752699,7.938686890945441,0,No Damage,14.808785380783576,2020-01-04,03:30:00
0.0920043615753412,-0.2677488109639994,0.4166645212061483,20.80277520532076,71.5207943292694,6.63886596296736,2.0710571477171564,0.763335534613332,36.183666650368494,1,Minor,34.41591922085289,2020-01-04,03:45:00
-0.0377170968003369,0.003793940005532,-0.0599279498002975,23.58306996044489,32.47907810533978,4.862545650738835,3.1459646847884906,0.1240888393297883,34.23798889292183,1,Minor,31.751254799485675,2020-01-04,04:00:00
-0.5618089985025672,-0.2763735430523469,-0.2811009210313994,32.046841785024235,37.52217028045629,0.9148715984654844,2.643119873527045,1.1047806339555863,40.55772475011993,1,Minor,31.09245573306767,2020-01-04,04:15:00
-0.2796182965894084,-0.1847144053735818,0.2879511412225454,31.50814381078491,38.09734720181211,2.0128492619781184,4.014391321520508,1.0891607790006546,43.92080023834953,1,Minor,42.97818664084589,2020-01-04,04:30:00
0.5039362062394719,-0.044641932215062,0.2294609873414012,24.536204923781312,87.293264155506,2.0805613365370137,0.7225211099608138,0.8412753287846789,27.331809724704456,1,Minor,32.955543332496134,2020-01-04,04:45:00
0.3218337577146465,0.4741194253055099,-0.5250272998419614,24.38530582133304,76.78885824743345,9.08681001361547,3.0506930739943825,0.2034702598741364,50.15591104439113,2,Moderate,63.06541859132847,2020-01-04,05:00:00
0.0995048137926998,0.1712026306901442,0.3186408326751391,22.992634874227388,76.87103384521357,14.340511393215968,2.4140719607172296,1.4608464995833184,0.0,0,No Damage,0.0,2020-01-04,05:15:00
0.2637459449198989,0.6203264138387156,-0.5281587003966746,26.105407406189247,71.92981219645952,10.775692679186973,2.3981853969367526,1.3047529555368058,65.39000268956605,2,Moderate,66.52029644655921,2020-01-04,05:30:00
-0.2294547347507252,-0.1851912104684244,-0.2118120999489626,21.37801320963677,46.93460498778627,6.509009379964858,3.1169505145191803,0.8953400364772294,12.43324557095291,0,No Damage,12.321578493833371,2020-01-04,05:45:00
0.1035001949427207,-0.0050874801777827,-0.3996244508260796,36.54774106155482,88.68451941019192,0.5601813776688275,1.8454678203551749,0.4749543119983109,14.53778255176282,0,No Damage,8.71223495912864,2020-01-04,06:00:00
-0.0205278739630636,0.0815451318172657,-0.2011357272720538,23.269700139161483,44.020752690522045,5.267094034917342,3.659659212677968,0.4959399871504886,48.83860654666511,1,Minor,40.19897578603778,2020-01-04,06:15:00
-0.2653966150528034,-0.7232084770479779,-0.2440740414010348,21.64516407492475,58.15861524603998,4.152253309781843,1.9900210270038967,1.1415787421227217,46.1852513868208,1,Minor,43.92808515049005,2020-01-04,06:30:00
0.1590304849456836,0.3158748306164221,0.32596761378037,22.937312195925635,39.02354135951104,0.1331792915521884,1.4308241812124582,0.1268814610882193,0.0,0,No Damage,0.0,2020-01-04,06:45:00
-0.0623260121925639,-0.2654115548500192,0.2166295862481176,22.00582074466819,31.6210775264276,7.355756001739087,2.1115027076232247,0.4325228450775883,19.626823780343425,0,No Damage,28.473079611420022,2020-01-04,07:00:00
-0.1982775656780996,0.1537346538487066,0.4417333452929069,24.540908188577944,53.61086508864945,4.981242092455024,1.0842341860497031,1.2933145488768238,1.6943180773308342,0,No Damage,0.8322822326293742,2020-01-04,07:15:00
-0.1040506596673593,0.5057810896244457,-0.1955849296525898,31.241685389969884,47.672130862276205,0.6393017864702183,1.696410290074563,1.2431625159061348,77.82481703258408,3,Severe,85.76295477442788,2020-01-04,07:30:00
0.2632309107817339,-0.2411721503331861,-0.0030772599333458,20.189421175812416,70.78743873278299,4.260335503576299,1.588212708841842,1.1630003924743766,0.0,0,No Damage,4.058683651259727,2020-01-04,07:45:00
0.4004312600683344,0.0867696582314083,0.8247116154732329,22.567870434449404,80.17464884003827,10.93932166115319,1.7105751028479173,1.0374813308570494,98.3443728956316,3,Severe,100.0,2020-01-04,08:00:00
0.5173632835662535,-0.1412713897520054,0.1009409603056419,24.84740235571969,84.20745789815699,4.71644685714117,2.5070385779495825,0.378919277996968,9.606331197771066,0,No Damage,15.796048554504452,2020-01-04,08:15:00
-0.2532509890188221,-0.086219664417252,0.2715349282933387,23.023607220267166,64.36340430843342,10.982735691385136,1.854272246691817,0.9796757004694012,13.860032228609366,0,No Damage,9.316283799722488,2020-01-04,08:30:00
0.1371417017290711,-0.1335689758314952,0.1616766248340972,25.53558114558477,65.09275023696802,6.871628009643979,1.2449648622527816,1.3474789981447204,39.86817426021741,1,Minor,39.11641562310888,2020-01-04,08:45:00
0.2753836721259288,-0.1637571200450561,-0.6637967126966106,28.963669979835,76.45866609466323,10.611099548349523,4.34278678857347,0.3853668586176034,12.487950084091311,0,No Damage,12.538930711876226,2020-01-04,09:00:00
-0.1858489252345584,0.3719894816518506,0.2254373494035663,25.482505452826487,35.04141046825456,2.8150884177101467,3.9680316324697817,0.1272949106447632,36.374792001953736,1,Minor,40.52393260845526,2020-01-04,09:15:00
-0.0746661354287314,0.0239804947459945,-0.0159650574561748,24.15261975009855,42.992992724019615,10.4650613560849,4.31584949272766,1.0430410342055274,54.36431696169981,2,Moderate,52.24013228055452,2020-01-04,09:30:00
-0.0376255255989475,0.1291772822409424,0.3020169320421047,27.470772982924764,70.44473011494568,2.8714872303575616,0.5924421722046158,1.159982661220434,62.70696574517147,2,Moderate,63.219215273679325,2020-01-04,09:45:00
0.2916981820701345,0.0568490149510266,-0.4421545989379689,31.76411526527987,52.8305972569641,10.94584517316851,4.346275468152556,1.2771010170924395,10.955206125633165,0,No Damage,13.642062321190544,2020-01-04,10:00:00
-0.2369949834254053,-0.0027496594638642,-0.4237261325957074,20.925122602655357,54.31438687850486,9.376905826267674,4.334636765298836,0.3890195098093216,77.5727147724552,3,Severe,83.05866300435761,2020-01-04,10:15:00
-0.4792731102350389,0.4154104838995894,-0.1708252368947209,20.39309609679201,86.7398010729538,4.134866346372903,4.396976659879156,0.3802886213044761,42.1251850240626,1,Minor,48.75433315947664,2020-01-04,10:30:00
-0.4760485000487811,-0.1092845016898748,-0.0007612563173717,22.838885120427538,72.95390366668991,2.437038454767122,4.376367393574796,0.665191812612393,38.431514557511136,1,Minor,37.40860322411796,2020-01-04,10:45:00
-0.3483771763717949,-0.0453335873933512,0.2862163271452934,21.85116268377213,54.90782063546372,12.815681308399771,0.6986174556020509,0.314856130210742,65.16537677818694,2,Moderate,67.70939795436236,2020-01-04,11:00:00
0.0807776301544551,-0.0945457653427195,0.5583464501872403,19.660414887005956,84.6100221165204,8.810198195657781,3.2651467177881144,0.6953277471679259,26.14439300621329,1,Minor,28.97096125859502,2020-01-04,11:15:00
0.3354018049777989,-0.4707875212789643,0.6456534456114716,16.757573532449634,33.75858121229532,5.369554237032367,1.5403316395492268,0.3697669879972847,72.30387954999577,2,Moderate,70.32952118712976,2020-01-04,11:30:00
0.1971440323111939,0.3465194239771325,0.05681345927358,24.65525278751416,32.80976654246699,1.2404769743374149,2.3764179578193056,0.8450150688797753,3.077730135997492,0,No Damage,13.176728119057731,2020-01-04,11:45:00
-0.183283074044978,0.3218679876962971,0.3601438229787275,22.56295105509443,84.76425704775014,2.052478262327337,1.6634946492501397,1.4893982669809551,23.126489301773898,0,No Damage,26.91852168834504,2020-01-04,12:00:00
0.0247924252424174,0.0802636397252014,-0.3578476164811284,28.056229550181115,31.72313856719104,14.872832347897011,1.7929295843734858,0.395490326198322,44.80707043838374,1,Minor,43.51626693351168,2020-01-04,12:15:00
-0.2950574866110651,0.2201061121935371,0.5792125596436676,22.109679726442277,67.44972838560304,10.61538921754735,3.49389903026546,0.3788377898588811,39.485179140401634,1,Minor,35.02650582777569,2020-01-04,12:30:00
0.3509763381588839,-0.3206181849900734,0.3200799968905709,27.611346348755557,38.77695789561013,6.710796331517696,1.051763200938101,1.403921038567398,64.91597244262502,2,Moderate,63.84630426382717,2020-01-04,12:45:00
0.1719964108533327,0.1950174631320507,-0.4056370091115371,26.50674187838931,53.558868120334935,14.644807837954392,1.0973464790016416,1.368420789791591,68.8108835052451,2,Moderate,73.48683551095107,2020-01-04,13:00:00
-0.0246672198732935,0.3717229436803816,-0.1588250668586173,20.760821424607997,88.3334929088845,6.715871570389799,0.8875268787211974,1.0117365907619205,87.56193028976489,3,Severe,84.45990905394545,2020-01-04,13:15:00
0.2033208040596403,-0.5703290038821768,0.3011259310339667,26.558991909741085,87.60850227757248,0.1424943475922874,4.073883293661157,0.6988080336266451,63.079300473746486,2,Moderate,60.89588884352005,2020-01-04,13:30:00
0.4256048328839799,-0.2618450594173488,-0.082804596025633,25.50429669930448,72.85687548610977,10.051908461517652,0.95128836043024,0.1904742063795193,13.528388668397383,0,No Damage,6.008924014467256,2020-01-04,13:45:00
-0.1095422410108244,0.2166037053087158,-0.0724055072107772,21.65650973267085,52.70355840503088,4.647919985120129,1.6904889271396333,0.7071406786351918,0.0,0,No Damage,7.638246300871142,2020-01-04,14:00:00
0.4909253384479055,0.0772439316079613,0.1758569662616953,21.361304624286007,73.51975375130147,6.024250687382583,0.6881384443162422,0.9307656543095766,0.0,0,No Damage,8.397274104913741,2020-01-04,14:15:00
0.6032062637340606,0.3050992061344375,0.1502078183576425,20.0567067914242,53.87808683808126,8.561034106691979,1.5635678865563656,1.028548892656387,27.200079947489584,1,Minor,36.2326341751653,2020-01-04,14:30:00
0.1059515496152303,-0.0551519015088638,-0.1434122765485192,25.717794789483253,73.10748004504713,0.4720317478561286,2.6281328609324595,1.0356738880590723,31.1871821368602,1,Minor,34.09574642066799,2020-01-04,14:45:00
0.0714339864292821,-0.7683910042599393,-0.0377601460378137,26.186208580477807,33.439682137504704,4.825414467509443,1.1057843649250052,1.354040179268466,12.887913213679596,0,No Damage,9.824741878362309,2020-01-04,15:00:00
0.2184619413459043,0.2328365374174993,0.5075711049412827,18.989729212800636,48.72640735558098,5.335605676005275,2.78583851456723,1.1483676986178697,42.38705193405366,1,Minor,54.838586986011,2020-01-04,15:15:00
0.421651496391662,0.4308160000016158,0.1597680691268259,27.27498293950465,78.15509057602297,12.709635898386958,1.4535519808630384,0.218304894196606,4.418157534656025,0,No Damage,14.528053948224995,2020-01-04,15:30:00
0.0476494406883626,-0.1299075733005246,-0.4518723571491927,23.96520605923371,48.91071609084976,13.04330723407956,4.540307087748541,0.5827213289964756,46.76689979807944,1,Minor,46.57155073739842,2020-01-04,15:45:00
-0.0247955474630141,0.1043664531021226,0.160166289118168,20.29626037357172,65.20396478488118,0.4264830261586388,2.6595134208590028,0.6606998798862148,49.21428887731022,1,Minor,59.150370775509934,2020-01-04,16:00:00
-0.348119320796877,-0.0567429709360077,-0.2336921561493027,20.135648758283168,49.031853063910816,10.412719234223834,2.137484641795273,0.2311966891486688,55.67020429721476,2,Moderate,60.46739012763968,2020-01-04,16:15:00
-0.5122361556171774,0.0975411299411509,0.1879435023841671,22.816621818448397,31.63429875672709,3.749971155661852,2.2046110044888225,1.0346276506173653,15.98925062964472,0,No Damage,17.41337512286394,2020-01-04,16:30:00
-0.3617883696281865,0.2197325601360108,-0.0427159468079315,24.35472896361698,88.79818654999997,4.490431531148387,4.15748802290562,1.3893136681836895,0.0,0,No Damage,3.391885834115393,2020-01-04,16:45:00
-0.0847358886093203,-0.0552044513469972,0.1218720012619482,30.61553879755672,48.01421419610168,13.42490083239944,2.697167918532463,1.4334355093728126,66.91234266384413,2,Moderate,76.40056666839374,2020-01-04,17:00:00
0.2014180481949948,0.6845133734951511,-0.6522143797473702,16.042031434751642,57.94310022607676,13.662464287349218,0.9751779903494244,0.7204607212394789,51.94048162023299,2,Moderate,48.08830846398023,2020-01-04,17:15:00
0.3395110007596069,-0.1805866194998941,0.1270766548351717,27.952036707201625,32.41648601085507,6.030045821373914,3.183001285870056,1.1906963643964872,53.88625182018282,2,Moderate,53.068518798968505,2020-01-04,17:30:00
-0.0391814118199302,0.7046999237694807,-0.4243337896765495,23.23861941307708,44.35574384353892,2.337093924771831,1.2934489401714688,1.2417889556931487,57.28149614533894,2,Moderate,48.50666647770313,2020-01-04,17:45:00
-0.2279038545318291,0.164999890044208,-0.4838380798949879,34.71870683322328,73.4352479608777,11.58016993672026,0.5455354920805744,0.5806565956642682,13.951183123992363,0,No Damage,15.583192178503792,2020-01-04,18:00:00
-0.2388974067280409,-0.0679619759794719,-0.0589680709317022,21.24779250974604,81.48547186931157,11.494998590708123,2.632954964529024,0.9066896762151578,71.28256712126164,2,Moderate,72.25909761582183,2020-01-04,18:15:00
0.1993400620311256,-0.3135854113979891,0.2044710775002188,26.33150767400546,85.08748544855821,12.591838805203976,2.053794837867017,1.3824406781348662,55.54469397358192,2,Moderate,51.85877420360159,2020-01-04,18:30:00
-0.2336531946104316,-0.2999398092594401,0.2237947841425661,21.924874169877203,45.29426848672343,8.19950962706338,3.407540466533491,0.7756457315344638,8.692966430994005,0,No Damage,5.967181870353834,2020-01-04,18:45:00
0.2646121886184669,-0.1448691725643173,0.1539870376633582,29.497672396721494,53.68451937654364,12.224626194294974,3.0546412385354182,1.0328886764388268,63.28764878405114,2,Moderate,68.70656476650868,2020-01-04,19:00:00
-0.0482698535740747,0.2510669862836663,0.4196321017223394,28.29717049553297,84.54529161703562,4.289062723596953,0.9175039216504148,1.2598728893304194,19.24233927401185,0,No Damage,24.957350319952617,2020-01-04,19:15:00
-0.1233251285257769,0.2972476948493098,-0.0433412479750551,21.596032015260924,80.68444908287964,1.2484370668878193,3.607018381649413,0.8267966273522478,17.236822153725274,0,No Damage,20.363163368314808,2020-01-04,19:30:00
-0.0240446106164177,-0.3333207531994257,-0.1127537339816551,24.62681074930031,47.0297001767912,10.932964215236176,1.5904188807098536,0.5877134003916612,16.380818441897535,0,No Damage,26.05358182410892,2020-01-04,19:45:00
-0.1317332655746937,-0.650563859551629,-0.1703703849611992,25.92506405278344,32.83023054703483,8.044197822556894,4.531794372324189,0.6103269940778414,66.86290923374031,2,Moderate,69.80097471015885,2020-01-04,20:00:00
0.1717772039334013,-0.1117839426077814,0.452723193015608,23.29217422150015,78.07320405070448,10.904266349731731,4.9398568760874735,0.4217501589885877,20.93725571604912,0,No Damage,23.65411638548812,2020-01-04,20:15:00
-0.2068047044954509,0.3403846128755096,0.5705722406285332,20.651310340868413,86.7930308604656,12.299815686501278,2.564049563671147,0.7611453065064357,50.969827380446894,2,Moderate,53.57627115494771,2020-01-04,20:30:00
-0.580610902005573,0.0001832533332475,-0.1011132400117597,22.40587914913622,55.0355686466408,1.9004965411181212,4.239933551895355,1.0147201141462057,32.38778665153049,1,Minor,35.000753874444456,2020-01-04,20:45:00
-0.4916619087834304,-0.1755490718312161,-0.1649837594033531,21.247301329668424,57.08613396515271,2.518990343056248,1.7690664008034966,0.1854356904064879,0.0,0,No Damage,2.3724668771642614,2020-01-04,21:00:00
0.0664905557977814,-0.1579680497259355,-0.0811392557562632,27.73498573743488,59.522968655055465,1.522824863179764,4.81288091592239,0.6502343841046707,84.2127656319337,3,Severe,86.90839307679627,2020-01-04,21:15:00
0.2588105672516141,0.1649489827405675,-0.0915383315565946,20.05530116190497,74.79686780577845,3.538154767041777,3.44928878301159,1.3838467554188645,81.16543191282386,3,Severe,86.58736894580514,2020-01-04,21:30:00
-0.0668607971035183,-0.0573568481514399,-0.1411219979750719,22.086919149209244,37.09139905211256,13.325679402350438,0.6039650696983937,1.322093070391331,67.81553066802657,2,Moderate,65.7687601281836,2020-01-04,21:45:00
0.0319679685612991,-0.1875916907779573,-0.606141004504492,17.898006320947733,64.91926210971808,1.9995649017617776,2.853954192432962,0.7930744387397061,70.98422003019208,2,Moderate,74.26466671423638,2020-01-04,22:00:00
-0.4434690188355019,0.1240293152748316,0.2428443177774275,20.94687891370373,69.65935095119187,12.52858667144817,4.185190567424622,0.1459130375094753,32.61031611428008,1,Minor,40.327630774216416,2020-01-04,22:15:00
-0.2508054887257402,0.0699159653820743,-0.6433647927964834,24.667812151423693,59.74047590744578,12.33093455918072,4.144199320763134,0.3284187148506168,45.76827474883791,1,Minor,44.3178353855705,2020-01-04,22:30:00
0.4924785410239954,0.1110044862099352,-0.0677606503362421,34.051817041043186,65.45317724041786,9.972154554606544,3.0755324407332134,0.7243058045328318,53.67172331365395,2,Moderate,51.03272472969458,2020-01-04,22:45:00
-0.1161164296435593,0.1382871101312373,-0.14031980826149,24.77086577780001,83.06531139136425,4.628416195934636,4.274907940289085,0.9248389521500672,66.8984482232361,2,Moderate,62.87552965566629,2020-01-04,23:00:00
0.3070029999033829,-0.0541219053887103,0.0045840200010023,22.70192793636434,80.4693029061011,3.0346970259497508,2.912045580897592,1.3723233288844428,44.41919581605001,1,Minor,38.81889039031096,2020-01-04,23:15:00
0.3747563862357769,-0.2250036507778249,-0.1451930334722097,25.241034439266848,51.62842947813516,6.0670061057504485,2.232472641833563,0.7191998678691961,60.51913776976513,2,Moderate,67.17408764129242,2020-01-04,23:30:00
-0.2943273979695583,0.0900947885647092,0.0226084372828623,21.476609744926293,66.41193047790532,4.748853613485366,3.8904094629540498,0.7807120074497268,64.68429528883115,2,Moderate,70.75520148968931,2020-01-04,23:45:00
0.1518915352931749,-0.0845767185128464,-0.4338510014394458,21.22898275343862,33.47587097982302,10.836662144309985,3.6263626314231896,0.4880802713721084,75.9912118699547,3,Severe,80.54812057413851,2020-01-05,00:00:00
-0.294432548670364,-0.0868485676661971,0.1561050416668846,28.149856771056484,65.34268035454433,5.026440846573597,3.904788736691825,1.201102400177887,45.59638423495424,1,Minor,43.92818575451852,2020-01-05,00:15:00
-0.1392589946859741,0.0425698193980327,0.3116269431704938,29.642629589752204,44.02690561821329,1.9453937189069288,2.661951077486514,0.6151114887509488,41.73121636288944,1,Minor,32.27032759026419,2020-01-05,00:30:00
-0.3167661570706798,0.3621762715595352,0.1019475062748856,24.12467238928385,70.57566439419244,0.3903271673213049,3.757393706565211,0.7666396059732586,1.591302267140421,0,No Damage,12.309823082164352,2020-01-05,00:45:00
-0.595358296507892,0.0275549523579789,0.2583016538314435,32.10121837604116,64.40270788219124,7.808074331888942,1.2457417550574532,0.7515345334810684,18.66794831693884,0,No Damage,25.690242946778937,2020-01-05,01:00:00
0.0554574020795921,-0.1731845762216502,-0.0053422545007809,33.510684204705164,88.1136043208363,14.568196118400325,2.2587576258634083,0.7326554399210843,57.06099666759715,2,Moderate,56.78556206844877,2020-01-05,01:15:00
0.0123744642684607,-0.2886453866592238,0.304721810480264,27.149931347724973,77.06424924085589,13.279287555087611,2.557286290183633,0.3065347264691209,0.0,0,No Damage,5.118065354161264,2020-01-05,01:30:00
0.2933170151993084,-0.3719388406351469,0.3120739084748811,29.03892791256058,53.24749728561993,10.21487525439021,4.207731303973235,0.3687731663680662,47.94412148052673,1,Minor,56.17884770950686,2020-01-05,01:45:00
-0.5614644759443145,-0.3083634149236787,-0.0420509685290923,19.96306730043061,69.57994260310988,7.437671112589663,1.079885117905367,0.1558472234677854,52.2063571763481,2,Moderate,59.98664186492964,2020-01-05,02:00:00
0.0117952591314598,-0.3002445618715754,0.4896859215453221,19.466729746518475,78.77273838369106,7.8912605634219375,2.028294641809373,0.4395292445620827,29.92615505105309,1,Minor,24.28690877795465,2020-01-05,02:15:00
0.3598966429616558,-0.1500381706328676,-0.3588632121882676,17.493557999451145,53.31967203884939,1.24399393114448,1.013262556017263,1.2676511945318183,23.50205118678506,0,No Damage,29.91935072560669,2020-01-05,02:30:00
-0.2279666830188526,0.4857684850891698,-0.3508842438804969,22.455646539977906,89.84219308242432,6.554485161506984,4.780155237172431,0.6539990385557309,31.037542970960672,1,Minor,23.88776018949794,2020-01-05,02:45:00
0.2497337898164776,-0.3524690279526256,0.2485651803429187,19.032940427688374,80.093710195754,13.627511434841468,1.8011170953049542,1.2378645173719125,21.732062087911004,0,No Damage,23.19739039658904,2020-01-05,03:00:00
-0.071912430141032,-0.1738723271841955,0.1982865060902042,20.746883833735072,51.59073116318592,11.55163133475354,2.2639321832319994,1.163087937627203,96.16773665082954,3,Severe,91.12095500534002,2020-01-05,03:15:00
-0.4298361990981346,-0.385792954283742,0.2394897336237278,23.18559384332845,63.0301394324835,0.2980579066737182,1.0331230083651053,0.5750111757057317,27.811567948591183,1,Minor,27.42070870674619,2020-01-05,03:30:00
0.3320578466217975,-0.3456810635586209,0.2219825415030825,18.82435795336765,52.36961016073835,6.905312693642726,3.323843936815153,0.6015763957730724,56.86259840294692,2,Moderate,68.53269161019064,2020-01-05,03:45:00
0.2233936281621308,0.0459762855419821,-0.422760546619203,24.28605724160345,44.52053145242814,12.968164299442076,2.6995633553442797,1.262902293547289,20.538556869775885,0,No Damage,22.85230429927475,2020-01-05,04:00:00
0.2697966991628013,-0.1499730487471545,0.1815650133418701,28.640180549750184,64.97877125764452,11.289661824933674,0.8852716220731108,1.4124768372855845,99.28606741031122,3,Severe,100.0,2020-01-05,04:15:00
0.4349468111418558,-0.1256483911840904,0.2054101511632489,18.76899662164761,41.5794142245945,9.841119682042155,1.3781519375022877,0.3952952530573241,14.08005901481204,0,No Damage,18.612670358999587,2020-01-05,04:30:00
-0.0212553503178378,0.4415662130630201,0.4035511255454109,20.62804625629442,62.60802153173768,7.456394829569295,4.843107887242466,0.1780298220266273,4.11460729848568,0,No Damage,1.8296259720731607,2020-01-05,04:45:00
0.4936832412741585,-0.0068016158804021,0.2037104998177613,33.72647864499368,84.16619239222062,11.590881051081102,4.220216509279718,1.2695028192999998,84.07888708661883,3,Severe,88.45894254830498,2020-01-05,05:00:00
0.3673718008797081,0.4780106429517688,-0.0864266600565216,25.297894448601834,52.06036655878054,14.087053174156384,0.9536669879921718,0.5104434318946398,61.55689194170757,2,Moderate,65.8893264992468,2020-01-05,05:15:00
0.3137005725642135,0.4048556687189342,-0.4528809571219353,17.632696185582212,69.57128885869446,2.39772002687367,3.8187493939940578,0.8642665384407643,25.619529279226093,1,Minor,32.30278610862709,2020-01-05,05:30:00
0.0240805076879419,0.0835960733349789,0.4720115613855581,21.954926643755183,62.91176960583056,2.214695177011652,2.383697385454611,1.498847721856846,26.467927858506837,1,Minor,29.283031422743807,2020-01-05,05:45:00
0.4733072490866427,-0.0078901870142574,0.1052038802923844,27.86777167328777,58.386080430672,8.825224162320161,4.953259894527933,1.49279518476054,6.79669439721323,0,No Damage,8.471000410250934,2020-01-05,06:00:00
-0.262188891115209,-0.3074875874718835,-0.2472053977943006,29.659243273205306,32.88122623338553,11.23334039835198,4.229595243954488,0.982027910953312,64.11566005456008,2,Moderate,65.01521222662015,2020-01-05,06:15:00
-0.0363677805899402,-0.0905732111851125,0.2597749693301736,27.918749518448525,57.62024320726787,0.8258122925878036,2.8154893833997554,1.496047265144678,23.84489136162333,0,No Damage,29.79318331919221,2020-01-05,06:30:00
0.2967755716950817,0.0400103832071679,0.2050938245703354,22.95605776934674,57.00737277581588,6.351013255404334,3.614951044511871,0.1278680453350942,15.340819730307173,0,No Damage,14.697683918416748,2020-01-05,06:45:00
0.1637408298625116,-0.1042117850347437,0.1190466923790291,24.989322477940963,77.26423521437678,8.554620998177938,4.669700977416112,0.48079892129804,45.01605420995226,1,Minor,38.33574970941548,2020-01-05,07:00:00
-0.0019216931070603,-0.294743898161775,0.1907018567850029,19.47493607636265,78.43861547526959,13.8501268414361,1.8395588731585784,1.2125930118642203,75.74114023428714,3,Severe,72.02688367643682,2020-01-05,07:15:00
-0.3878616228519328,-0.1096680755000905,-0.3929107250717291,21.28483752756572,86.24164019919377,5.503841586392301,4.926160498596056,0.5050812344077935,32.56139374651148,1,Minor,36.95192590009263,2020-01-05,07:30:00
-0.2651298232242817,0.0459010631901831,0.4835222125503134,21.85544694554511,64.28492090622089,7.749674755486123,2.756346942339428,1.3198507848969951,34.37866748245346,1,Minor,28.818567562067344,2020-01-05,07:45:00
0.0118889539738187,0.5888771671597904,0.0818504974774612,34.40977830123488,48.47009788980791,14.058634305550818,4.175139909830705,0.7659992317352602,53.23666438943261,2,Moderate,49.56904105970243,2020-01-05,08:00:00
0.0696700933548164,0.0863538507091706,0.2426576780127174,20.750094928294388,74.92639287079356,4.49254575036584,2.4765741171311384,1.3895733024123254,0.0,0,No Damage,0.0,2020-01-05,08:15:00
0.3725671988520745,0.1283187036253643,0.0987038808245597,27.38366217556313,72.881623864333,1.413719907076103,2.854444900298692,0.8978415976312656,19.90125517373432,0,No Damage,27.188580862040386,2020-01-05,08:30:00
-0.0159026566733908,0.03743513750905,-0.0056346032534096,24.883402208152678,34.22012646866877,5.927807415732613,0.7481616938994238,0.8255317072725182,49.89242658682457,1,Minor,47.26927051517991,2020-01-05,08:45:00
-0.4732418575897182,-0.0943338176439434,-0.117905476289408,29.97326568425692,42.828502871524414,1.1453238308629103,3.0254719880144254,0.5007029163363805,32.885856975117015,1,Minor,38.69622099771127,2020-01-05,09:00:00
-0.3755872449110893,-0.3580849340177548,0.1505151349760989,27.38774142921633,46.49183646197059,11.321339030557697,3.447003968171996,0.6625657551166516,35.98026267188678,1,Minor,43.71774273242913,2020-01-05,09:15:00
0.2483188022490215,0.0706345877975944,0.1900106708543935,23.836926307725864,67.2251290719264,9.423628700836408,1.2132556831132733,1.15020774576253,75.50924076575784,3,Severe,75.7545482451439,2020-01-05,09:30:00
0.1960058834102251,0.4155691323230461,0.454343573548674,22.811231713166663,45.32732877747152,8.44124938750983,2.867878534351003,0.5941384022682116,51.58383157447602,2,Moderate,53.031684659511136,2020-01-05,09:45:00
0.0718258950210139,-0.2386655180195711,-0.6072768526993729,25.95416490295344,30.58307719880194,0.5361522013313624,0.99720181585035,0.4571571460612165,76.50257053758989,3,Severe,85.1212627344625,2020-01-05,10:00:00
0.6988031080639173,-0.1239258972233012,-0.4283291974238719,26.369663086147543,82.00067394374923,9.11896405678918,4.287458987344857,1.206680987881917,38.20611226536932,1,Minor,46.461239024307645,2020-01-05,10:15:00
-0.1344052239659196,-0.3408570968938333,-0.3088211834027594,31.456272193590983,49.347604040849305,5.436150056941908,1.9971876511481463,0.3858851852422936,27.73117309972276,1,Minor,37.02062286920767,2020-01-05,10:30:00
-0.1810942418227502,-0.1102391999994654,0.0655364434364306,19.86749707652696,30.89029678741009,8.205445510287504,3.6030257635033767,1.4216762231592317,16.48377979342721,0,No Damage,29.259690517481214,2020-01-05,10:45:00
-0.0197627180070522,-0.3569178612640356,0.3819591556974355,37.162626220998106,46.16585008740519,9.635140592523491,2.8800542806979044,0.3780620780352711,21.66265495482353,0,No Damage,17.127684451344457,2020-01-05,11:00:00
0.0408501684631698,0.5099054714736861,0.3299067957582777,21.81387066626147,58.12181692114331,13.80274605731541,3.476310778350551,0.4653710751936025,3.722331407346125,0,No Damage,9.406855705729289,2020-01-05,11:15:00
0.2395905772129047,-0.3764568377475555,0.0837366250388029,16.988873683558076,82.06568481005405,1.503893426647986,0.9653758632355602,0.7120702073444707,0.0,0,No Damage,0.0,2020-01-05,11:30:00
0.4518379790479895,0.362394472258507,0.2844266776902523,7.199972064753368,74.90614577102912,9.4823416440011,3.987599428874879,1.2028799747018328,31.376523425441373,1,Minor,37.01496368864824,2020-01-05,11:45:00
-0.5829249324572162,-0.0234143646907681,-0.2796558944644782,26.519965604757186,48.96016039987501,6.160871210294113,3.937504951502866,0.5786411122905901,49.112846063374334,1,Minor,51.68733436749561,2020-01-05,12:00:00
-0.4557919370045287,0.2594349575905563,0.2202825993379046,29.5934843317365,33.42252157716184,1.543473190104243,1.8072799045684744,0.6339031297571672,100.0,3,Severe,97.7875016564784,2020-01-05,12:15:00
0.2466925222349492,-0.2970990080374228,-0.3934977373257544,19.648648273135542,88.66785494694972,1.916363239214992,4.244272543117175,0.6518241788338632,55.77464309425786,2,Moderate,57.52921876073639,2020-01-05,12:30:00
0.0417859119843605,-0.2755363495702851,0.3730315498789996,20.70309343690294,46.406065990975584,2.02601074159696,4.881662296632172,1.2155722759391296,86.06546642916939,3,Severe,86.28254631938198,2020-01-05,12:45:00
0.3855443437066042,0.2425725568285807,-0.0595592974945412,35.41086495563655,53.645751826203465,7.986257647580649,4.209437925118319,0.3231972339753792,54.695710618260776,2,Moderate,59.97868108279914,2020-01-05,13:00:00
0.1207163368391909,0.0152841064342842,-0.2833203486982728,23.302275631767152,57.83509567807812,3.1773292393834414,3.309256291542966,0.6035988866926086,33.32552836692376,1,Minor,39.34852110801344,2020-01-05,13:15:00
0.3273052633300072,0.1282532116819605,0.301791767561995,29.97203009237291,31.87577409351209,3.917084271633538,2.716205092283993,1.1697477634951516,13.68923056306624,0,No Damage,18.305332142479514,2020-01-05,13:30:00
0.5479455967988985,-0.2073116468158034,-0.4165927431518863,20.080622637088275,60.09851264006457,13.196882161291969,3.883287307338498,0.4813048312147079,53.13740615427176,2,Moderate,63.20992565623868,2020-01-05,13:45:00
0.525578264718112,0.3611255937536171,-0.4336440900867931,29.70059510662727,69.09046440169928,14.224969266242644,3.7645803116866,0.3321656201021123,52.11056186499499,2,Moderate,59.87172157063736,2020-01-05,14:00:00
0.0320079612354252,-0.0451642228134824,0.1809463010440702,22.445279668509293,84.66794261000021,2.1784375775922387,4.313912613399102,0.4474101565449562,33.12606263973014,1,Minor,28.911125061369027,2020-01-05,14:15:00
0.0077674442129203,-0.3030299274577149,-0.0617772002588451,26.151201276036947,35.39937610237058,12.644792784775428,4.441616395557128,1.1750964101792984,28.724551114678302,1,Minor,33.25211797715817,2020-01-05,14:30:00
-0.1954810275902716,-0.3025363100798136,0.165756452599072,29.0914132081512,58.85113183221776,12.438476565339402,1.4409305000588335,0.8499881079369448,85.76933188334058,3,Severe,82.71558795762644,2020-01-05,14:45:00
0.1106697396373706,-0.1417797403381598,-0.0373618145870586,22.43483905125686,35.08528709624081,1.0565608116339589,4.185612504102801,0.5541133171456485,33.528395801168905,1,Minor,43.01436425814257,2020-01-05,15:00:00
-0.4306676698388529,0.2186942364982752,0.2776573829429721,23.313896042927837,39.1151909219602,11.52854717281734,1.1414295529159308,1.3127226537761572,22.88401105742001,0,No Damage,28.735473012965457,2020-01-05,15:15:00
-0.2145289150247517,-0.5446724792787108,0.0061437600288989,13.246422660460455,46.72680560561403,7.21504558571219,3.661318846063793,0.6878271631907203,13.15536887154061,0,No Damage,13.280283565128627,2020-01-05,15:30:00
0.1337942774131998,0.1373884483955089,-0.1925868651644587,30.04207555849142,68.66375402202804,11.767593947692315,1.2464905826623718,1.0259190277219568,25.840060043903264,1,Minor,31.16461695091105,2020-01-05,15:45:00
-0.1375409529764036,0.041829469559423,0.0896025078954066,24.47024999629636,48.78258938726845,7.552984240262534,4.123396318215857,0.3889645673313699,49.87234377014288,1,Minor,51.586564224040295,2020-01-05,16:00:00
-0.5083338905060054,0.4692315806423576,-0.0447893386718985,30.180368149804902,73.17950407352242,4.009764459864379,0.8022348324099987,1.298365822914772,80.45504308958365,3,Severe,80.69665604369138,2020-01-05,16:15:00
0.010280238197398,-0.4778769949247063,0.176693020988829,25.674615677903063,42.0745778260476,5.144303149441562,2.872284458282692,0.8966492475682326,29.844406505198656,1,Minor,38.48664084487733,2020-01-05,16:30:00
0.1084741849062621,0.1143501449623006,-0.2043542750432266,27.53011371060028,79.46295646358291,5.625022211511582,0.6532308689236896,1.460805254609177,25.038093478366648,1,Minor,18.41394596099174,2020-01-05,16:45:00
0.5206579478108525,-0.7546757738155516,-0.2720427118026536,18.761761760460463,47.26275114658975,4.174715483262468,3.7826011927582273,0.427204292983856,56.38039007944848,2,Moderate,58.66265459246235,2020-01-05,17:00:00
0.3163278438456938,-0.5861669916789752,-0.3924484230636075,27.78993593919082,68.8445511012097,5.960707639118657,3.662784798600176,0.3518788120109685,11.036728928033003,0,No Damage,0.0975199073190857,2020-01-05,17:15:00
-0.4650115580655715,-0.1810122885672597,0.0168654481746662,18.831609816541853,46.98642355482676,4.001399648731542,1.6008206914870926,1.0457618857373947,43.966099056105335,1,Minor,45.494308343567575,2020-01-05,17:30:00
-0.3833428902021988,0.2248628753196302,-0.027118208694799,19.765161840081102,61.67284541371049,3.0614645439142416,1.6657664905403853,0.6697408861514145,56.64976980627078,2,Moderate,62.817073833803086,2020-01-05,17:45:00
0.1874766601274184,0.2380303584344283,0.1133775873740399,30.494918732070573,46.9100496110546,4.771087526658863,2.643979174779525,1.3232187421587682,45.757643657745255,1,Minor,43.13721367101351,2020-01-05,18:00:00
0.1652812672646674,-0.5191599072332868,0.2182714300827113,25.28691508311,64.71850977011908,8.61812830890655,0.8040973086975749,0.3655938997937189,64.76763366867762,2,Moderate,64.85573826692107,2020-01-05,18:15:00
-0.0594358561407761,0.1836746453036782,-0.3555665272841224,23.45214491206968,89.33685450882717,3.798845455804132,3.645453799469738,1.1499961312739009,46.71306711679187,1,Minor,47.94963180849087,2020-01-05,18:30:00
0.4318598648578016,-0.2444176315711678,0.4424604529688155,13.778002522036864,58.8128300226757,5.981384402310454,3.0071422491347275,0.8743214667105299,35.67109264767168,1,Minor,47.868966374817816,2020-01-05,18:45:00
-0.4940217620639411,0.4433312390866008,-0.1323969257257588,16.836344783968187,33.77399778916262,4.896996666387584,4.4310449379574735,0.7344349159164002,29.6581095034175,1,Minor,32.813896899432905,2020-01-05,19:00:00
-0.4416602598308169,0.3042382640627675,0.0874163857456016,18.46805605016713,78.66955703517459,9.254577832987284,1.421837987483094,0.1025430263739828,11.0424327870024,0,No Damage,8.821246732467253,2020-01-05,19:15:00
-0.0451828469751885,0.0748174661577619,0.2462398258175271,25.787333796523185,64.20176437108067,3.836123941135563,4.850405239664252,0.926294363638534,40.47374069145889,1,Minor,48.81346353226422,2020-01-05,19:30:00
0.6842141974701691,0.0841962930391323,-0.2507431849071684,24.549347551156025,86.38478915536325,7.590509260206878,4.570982148715975,0.2681746301276112,23.96389196440865,0,No Damage,25.353324350593237,2020-01-05,19:45:00
0.0389801018956718,0.0009418289272252,-0.5670776013506599,17.598333516964527,61.27105328396677,12.466570219232931,4.157088628627596,0.2013971968591784,79.21128697862571,3,Severe,85.20116545301302,2020-01-05,20:00:00
-0.161814731761363,-0.2819573757002953,-0.0984318938068776,24.658062221439824,47.907729349215145,2.5323205930995867,4.032705000250795,0.3361480280892248,37.261455620357765,1,Minor,36.08135466054653,2020-01-05,20:15:00
0.0051164527095836,-0.2218598373827132,-0.2094357048660962,30.09804670490709,75.4119606511681,12.518068930014778,3.758727388824672,1.0165975089885255,32.32684711152393,1,Minor,36.92097815626663,2020-01-05,20:30:00
0.1209175053537535,-0.390613735798011,-0.3540067886095997,29.41428555707917,59.173591203265566,5.40461039532547,2.9276351925473514,0.1951293845289448,0.0,0,No Damage,2.803128558390301,2020-01-05,20:45:00
0.1584063191462045,0.4879352783955678,-0.7359458885674361,29.572780980928584,53.04224086764932,12.304958088478736,2.8325923539247757,0.7274108519629249,54.30252991117061,2,Moderate,54.52896311915672,2020-01-05,21:00:00
-0.1909984210734329,-0.8841134409415525,-0.2476721278400929,29.257120268889004,35.9984520603011,4.422010374087646,2.855192142830643,1.4851646740958038,42.77370277413792,1,Minor,47.651627870027845,2020-01-05,21:15:00
-0.1048601882511671,-0.714379098633384,-0.1741608492283635,20.743090367029787,67.18947427836974,2.242254705648248,2.648256560682228,0.6327936928513711,32.997849327910714,1,Minor,27.903156062933547,2020-01-05,21:30:00
-0.4099750163832831,-0.0869401364727334,-0.0575654962044332,30.447672370996244,69.9744589232886,7.316358084167525,2.4395479155267545,0.8249425310681372,59.4337033784841,2,Moderate,73.3835497213987,2020-01-05,21:45:00
0.2994099348954864,-0.2155849643986208,0.0198246455136363,19.581604713404776,77.2906513068292,9.824036463352574,1.2323799248508531,0.7387499353569288,58.940873285650994,2,Moderate,59.96141311568066,2020-01-05,22:00:00
-0.162336970495443,-0.4815631121364969,-0.901086372084578,25.86464566669919,42.305409025350606,0.6729787124230113,4.277173660760786,0.511719854717307,3.265524182780922,0,No Damage,5.991563169264103,2020-01-05,22:15:00
0.0760093845432106,0.0261818674819655,-0.0270208106423571,20.53390314628705,65.12508812508659,3.4814074635385346,3.5876451732161594,0.3820786581829949,40.93961875636394,1,Minor,41.67035641747424,2020-01-05,22:30:00
-0.2509198653233334,-0.0841385886426281,0.1236840768988135,14.971631474686191,73.14083401039835,7.414130361064927,4.59313033033695,1.046019968237535,81.05869354604094,3,Severe,85.0294900381304,2020-01-05,22:45:00
-0.1558575639538942,-0.2825358602897714,0.0488933714717985,31.556746645639883,34.6038403770504,7.928518131254277,1.973204668552204,0.3796200441446284,0.0,0,No Damage,2.006960589132821,2020-01-05,23:00:00
-0.4321701925134074,0.2003778191553446,-0.2824016670493892,27.25738292288904,49.44701484531207,3.2258767661122567,3.4134223525669185,0.2978943858369207,74.97344589912119,2,Moderate,71.74093051614166,2020-01-05,23:15:00
0.2325552232130972,0.0025251517695628,0.53777109649127,22.607190123254117,87.6776101597271,13.581552030619768,1.821116874636176,1.4549878161707956,37.67601739636097,1,Minor,36.69953460757203,2020-01-05,23:30:00
-0.535378636021004,-0.1215867875403003,-0.4691107570192627,29.845268601844374,62.99827117280359,1.1802452226083675,1.0922240642622367,1.279323259131543,8.78081070876581,0,No Damage,21.352816192628215,2020-01-05,23:45:00
0.2878069105368799,0.2514189641851357,-0.1375128804436509,28.37714196228626,75.58454836804954,10.069641088578347,2.3794902298977947,0.413122335976033,34.269670983115645,1,Minor,32.85326154208582,2020-01-06,00:00:00
0.1755213795837678,-0.139672782677424,-0.5041097635080765,29.31698617773641,34.818854567856235,1.2122735561195448,0.6540437016433194,0.891697752358527,31.11809558373272,1,Minor,40.02641764787937,2020-01-06,00:15:00
-0.0173803474745972,0.5318459217031107,-0.0670125062616432,30.57465764764681,31.443427911731096,0.079687827036915,0.9538698163665732,1.465537497628399,29.91877117199232,1,Minor,28.87364280212261,2020-01-06,00:30:00
0.2211909889862587,0.1294004021705987,-0.3363313693262981,29.66939678120387,57.751317308127085,12.371256627289869,2.0304252783147616,1.0189736906736149,56.165676445690906,2,Moderate,48.31599725666008,2020-01-06,00:45:00
0.2173589048219726,-0.2277623661879896,-0.4776278084869885,23.72462148865491,83.02315317594709,10.039969945301138,0.5710516012852862,1.384245947954373,64.51899648641131,2,Moderate,71.55538020455356,2020-01-06,01:00:00
-0.3857906018903423,-0.0241787133545853,0.7638068094441283,17.27429017017136,39.29603478487672,14.732990630025574,2.663698286315502,0.914759078246462,44.79969027268952,1,Minor,46.18296029326736,2020-01-06,01:15:00
-0.0657917654876866,0.1245145095893977,0.2032615789730475,28.04145514264817,76.40227215412887,5.975845140641576,3.1903779007771145,1.0640546567668028,10.23965595786013,0,No Damage,11.4152551434863,2020-01-06,01:30:00
-0.2488835429833987,-0.508494079285298,0.3445383721313023,23.73788757319013,69.09805609967994,2.595077012079223,2.9707080025679566,1.4994497966784102,51.77710071559227,2,Moderate,48.7321868621178,2020-01-06,01:45:00
0.3008506640045849,0.2730918990836801,-0.1377974865670139,16.981872717696035,50.158924545566535,12.654373079702522,4.440038427437989,0.9536290060489534,80.10893611538388,3,Severe,90.18097814111624,2020-01-06,02:00:00
-0.4812489003213679,-0.3575303875991023,0.1806012557000418,25.18725680976266,87.87464021855807,4.21220343560556,4.620961673237577,1.1079417899201038,17.122692532254682,0,No Damage,17.40235149822075,2020-01-06,02:15:00
-0.2924118210003999,-0.0493537997983087,-0.2946218294638395,26.65937385049416,63.229366228436014,10.60586366069282,0.7686694307079036,0.1076949084648949,64.78402679882285,2,Moderate,64.67021970754209,2020-01-06,02:30:00
-0.3137765339859809,0.1632003283846467,0.1963047053555603,14.72479709225644,31.19276487211422,11.924144523523047,0.630749098276461,1.2843346666772315,14.517339956934109,0,No Damage,16.817232552735113,2020-01-06,02:45:00
0.2351948793306702,0.1059074709195596,0.4648374979759952,24.25102745966191,47.2151042365641,14.207888398851178,3.107298977933764,0.7544650466108215,60.033509008275296,2,Moderate,56.258340730859736,2020-01-06,03:00:00
-0.2771012961835936,0.0835604592463019,-0.4706599372699951,19.709402636355563,56.113520812199454,11.372994712002576,3.552196520297455,1.2003835262838207,62.48811797707503,2,Moderate,56.97900645470075,2020-01-06,03:15:00
0.6230509569932909,-0.4310094298709594,-0.0157153130249361,25.705472275085462,73.70619287311689,4.038914063353498,0.608125274390036,0.9110206184797917,24.862848612780123,0,No Damage,22.327259338281312,2020-01-06,03:30:00
-0.2385078261653301,0.118306341489936,0.3048114474021309,26.10191084625009,57.19330277473452,10.818057947707974,3.253169753663568,1.4959471059290097,45.31004894771138,1,Minor,43.75665038814029,2020-01-06,03:45:00
0.5811615124266042,-0.2747336501246239,0.2770315544268634,25.67056446346182,53.661114829145006,12.81482178760087,2.7017516525343908,1.100604902712837,18.757144219743388,0,No Damage,26.023200232961216,2020-01-06,04:00:00
-0.1438943598105831,-0.032499345548159,0.5075911673607753,19.26976844709858,35.89838394009369,14.491180591227804,0.7422651742934161,1.1873070214707575,77.84219295652653,3,Severe,79.24589818059255,2020-01-06,04:15:00
-0.0203883029011105,-0.1851372988332739,-0.5666802401979657,27.037326806249187,73.15753432369559,10.39911828829904,3.976951520876896,0.6637777677770139,64.34806588496701,2,Moderate,66.61693012200746,2020-01-06,04:30:00
-0.2291802257104361,0.1438009302567491,-0.152895573482926,27.696412156838804,40.41124350099951,1.717426086947444,0.5179671728710673,0.6367400994723924,36.61761638403607,1,Minor,53.07855002599992,2020-01-06,04:45:00
-0.191195248057082,-0.2655775483253252,0.3510111456800737,31.670403239741617,59.62091071994054,6.951384696675477,1.0832869069185525,0.7811520736349898,38.01621892821256,1,Minor,48.42361287486396,2020-01-06,05:00:00
-0.3088715807524004,-0.2117089785097793,-0.0654584378655981,29.245626569457745,54.84338393068758,2.6286202078197003,4.966849592053952,1.330176980907774,45.0402980598201,1,Minor,43.27702752494504,2020-01-06,05:15:00
0.447925781819311,-0.2937601595443287,0.0457413201343595,25.646452745870576,40.91357545650713,11.773608618119953,2.807735452344064,0.6061253023452502,13.78345124225082,0,No Damage,17.340933636669696,2020-01-06,05:30:00
0.1764331345727558,-0.0077025852022296,-0.204066615115474,17.633661135870202,42.832432237673245,5.648564827147564,4.502628369621789,0.7897628436627302,11.98114726594892,0,No Damage,18.602890238833147,2020-01-06,05:45:00
-0.0451754511966805,0.0025217338667651,-0.2121197631360517,18.37721148657473,89.57021316022475,4.223116039730136,0.5959257757297614,0.4895912016805711,19.909044268899315,0,No Damage,24.99791908567901,2020-01-06,06:00:00
0.4142723180161425,0.4255985472691882,0.0973394793992002,13.708250833077372,83.070593374129,0.328347513313203,2.299602583093641,1.2084514301944669,76.61229889226277,3,Severe,74.85451383587099,2020-01-06,06:15:00
-0.0134515703988267,-0.3483813140359208,-0.235233531730498,25.845142061650726,50.861149262644,4.723876596236626,4.977571079308429,0.6199039818716386,46.04043456482795,1,Minor,43.44829373279398,2020-01-06,06:30:00
0.3141258194884497,0.201262621187514,0.2091689231321658,26.51582570915193,32.19306530372934,9.758064602450848,1.2024397238673583,1.3273288472156677,76.44808631071348,3,Severe,78.4359972433853,2020-01-06,06:45:00
0.0285640501000738,-0.0633132113680697,-0.2029781669944735,34.90710610456692,49.90847554642141,5.187175477144532,1.593094077243861,0.1430517524072707,71.76105528655967,2,Moderate,69.97130285836032,2020-01-06,07:00:00
-0.3234282330379607,-0.1980365327361932,0.2182714427357028,30.934002592365403,79.58765609371751,2.3699479570011834,4.468938775630418,0.914763418674632,51.5796203423664,2,Moderate,57.308482291306646,2020-01-06,07:15:00
-0.1604293810476826,-0.3132845435001299,-0.2406426727712909,25.78090982151686,35.28903112076323,13.786461227818416,0.5653299827380475,0.7300208559053762,65.50895161724492,2,Moderate,69.65329900654949,2020-01-06,07:30:00
0.5315748374648488,-0.0703295969157026,0.424735348905855,18.728321881233363,88.36589709499239,11.103474310460498,4.4585267878540495,0.7521680677609123,0.0,0,No Damage,0.0,2020-01-06,07:45:00
0.5441564478373533,-0.415926909955223,-0.5433110646611624,25.6122986912073,65.42546157812085,7.651427470375987,2.798902873981888,0.8953899830633397,30.06248032431195,1,Minor,31.34879738534641,2020-01-06,08:00:00
-0.1459371803700412,0.1903960847943102,0.678165516070849,21.683374929559207,57.677338370480925,7.617672975561543,4.878717890362573,0.640037075825576,48.888004343900185,1,Minor,56.07607113333585,2020-01-06,08:15:00
0.1451915686918244,-0.2337481149259913,-0.4527658906156625,15.542613802803317,42.36177361303683,12.131513729379645,1.61237073359947,1.1328517795494168,26.499353815621618,1,Minor,36.407512058617485,2020-01-06,08:30:00
0.2041664489532481,0.3944700987619653,0.1250451956556517,22.40989304302701,38.75529981211701,2.750095277051762,3.092901870774907,1.3015333981376882,50.87328832831217,2,Moderate,46.890262188917234,2020-01-06,08:45:00
-0.0287797416358565,-0.3769650091598355,0.2631019491128567,28.469399433193587,56.93589760208361,12.40669826687141,1.2964617533104548,1.4098283576024735,6.613193475727684,0,No Damage,13.185850748165418,2020-01-06,09:00:00
0.1338105686126572,-0.316892561289643,-0.4799586165802975,24.246274409652248,45.4165598255011,13.275015381771343,4.237815528900572,0.7443560754519659,15.555265680848224,0,No Damage,18.330829013675384,2020-01-06,09:15:00
0.1023646607496775,-0.2315020082775097,-0.1578360998202642,24.16835329531117,40.02600338878497,8.232494152613649,2.84183222845752,0.7966527893409137,25.05235982790813,1,Minor,25.78183611588167,2020-01-06,09:30:00
0.0420895433366199,0.0447927445437091,0.1126412113418173,26.971847524278125,32.11004109708187,1.4365879340517915,0.6874874684363701,1.0883188917931623,45.16792147107837,1,Minor,41.75199953682466,2020-01-06,09:45:00
0.005245988870374,-0.1761711822101096,0.0338731431906453,22.029432510770917,86.09969977473477,5.100586301556306,3.117788568186137,0.685093568677504,68.39925945559881,2,Moderate,64.52045622361248,2020-01-06,10:00:00
0.2552542364595458,0.0103275371399801,-0.4467688587174173,24.620429947066263,42.54992737903642,11.797699529912544,4.7308386138473,1.4712988883695477,0.0,0,No Damage,0.0,2020-01-06,10:15:00
-0.2094619421895563,-0.2263958073777262,-0.0895621981392398,24.039292424086323,64.38117849610555,7.879426982241092,2.547739843687928,0.5019633428377341,73.7838680699763,2,Moderate,79.6242269416048,2020-01-06,10:30:00
0.2795674985099326,-0.3853237223233834,-0.0760957041324343,30.48969282158802,32.13133667959603,7.416291550846546,1.940482813784851,0.6678476126840215,58.15487474746358,2,Moderate,53.88648501531877,2020-01-06,10:45:00
-0.0899016515581733,-0.7263722097689904,0.1349837543305617,28.536829237904552,49.344790644308205,0.8201599505277823,4.7411363568412215,0.7622950856313033,44.44120294372504,1,Minor,42.080610052674906,2020-01-06,11:00:00
-0.2081838269556868,-0.2404222894334049,-0.6347872802777722,26.65012093243891,36.593900358137375,8.507296480118903,3.423566301735762,1.4281708862303395,36.281271223601664,1,Minor,34.792756745469234,2020-01-06,11:15:00
0.2070241411442893,0.1889862358542154,0.0180960670676651,23.715456093067825,61.76963600789109,9.123726118607602,1.373315811941059,1.415446696581733,82.70771667995669,3,Severe,81.15662216236821,2020-01-06,11:30:00
0.3522266799624035,-0.0249337707405996,-0.0558947949222848,19.996973820570656,77.20342136543549,4.049336863739608,3.440656727372726,0.2012158009015832,78.90261975852533,3,Severe,82.37436019040517,2020-01-06,11:45:00
-0.2527786034867699,0.0003207732250382,-0.0099823878488965,18.762524515571428,53.39617889572965,7.714653529443844,3.7131803305487887,1.112720201791713,56.26164480417954,2,Moderate,54.19907028080392,2020-01-06,12:00:00
-0.1655184216757861,-0.3494102798164958,0.142733620923321,28.38696943950941,38.172680270882005,5.461208581973867,2.3663401621983544,0.2337467626859165,58.60658048121408,2,Moderate,58.822115573356406,2020-01-06,12:15:00
0.0958734484658642,0.0717358108098873,-0.4304251453028849,29.551955269429,78.06963665090285,6.432718669077901,4.614534535611067,0.5180254041464725,48.50862343234435,1,Minor,49.29310683022708,2020-01-06,12:30:00
-0.0486912672242828,0.033879829417518,-0.0669397674585577,18.81767683661632,64.76634449403343,8.820591738415068,2.101867800279363,1.078898996380549,22.610700875401395,0,No Damage,32.47457249408997,2020-01-06,12:45:00
0.5547786853561524,-0.131092480385036,-0.1505421869637453,26.707947408945927,47.95888280431662,8.156843420310622,1.027301793907845,0.8702565319130983,58.27045619260449,2,Moderate,60.55670018731144,2020-01-06,13:00:00
0.1131921259761395,-0.0993171853425267,0.1196419293360638,25.7234993024622,44.02335116559853,14.010224571752614,2.4979022506236666,1.4882504359353816,62.97964170264836,2,Moderate,67.1999014321889,2020-01-06,13:15:00
0.1079611736879396,0.0875894035268901,0.2092458640816458,19.81898768198064,63.37407207222667,7.90242824833408,2.1077089710079453,0.8801624739880003,67.66069604438343,2,Moderate,75.39421739838451,2020-01-06,13:30:00
0.1894436151172835,-0.4641725034878353,-0.3089917869488163,20.56807788924887,33.12750057933156,13.319348966883698,2.004136358818598,0.8977126142724432,59.18330963925709,2,Moderate,60.55966947834936,2020-01-06,13:45:00
-0.0506221249737941,-0.1225831203630647,0.00135730402506,32.89892419374003,31.707788114227125,11.336033543904133,2.948323993456784,1.3968846865195632,65.20573677326371,2,Moderate,69.66626928814217,2020-01-06,14:00:00
-0.1056454688344886,-0.000355677506856,-0.2422093395230436,14.538176861023675,34.12219110704368,3.4952730680743507,1.7813478674416987,0.77340328169466,44.5597202387894,1,Minor,40.880866518673045,2020-01-06,14:15:00
-0.0039990144951511,-0.3457891477161303,0.3642235151445019,23.960135923139514,40.18664900508151,14.612035083696645,3.715796427258581,1.326524580516152,0.0,0,No Damage,1.62622494589689,2020-01-06,14:30:00
0.3870629500074188,-0.3496600749837337,0.0492364599181045,18.004478873940453,88.51414036598308,13.45220413035778,1.8777607567702963,0.1814794824851107,41.21904631418582,1,Minor,35.97054753965882,2020-01-06,14:45:00
-0.1146943786544954,-0.3739824773266968,0.0962019205981744,25.539067643191817,48.80956309747916,6.689230144472321,2.845260117819991,0.7937879313007686,15.273045303912989,0,No Damage,10.771510287079296,2020-01-06,15:00:00
-0.2886239719333646,0.6509319139443009,0.0278571769653987,28.31650087181836,60.06494834943502,5.2489698597635215,1.9000287828921945,0.7725576299398921,36.40226477148501,1,Minor,31.39239835213894,2020-01-06,15:15:00
-0.1576281256816171,0.0968958072333771,-0.3688732304208419,30.067352987951423,76.26920263388095,14.067193626982608,2.3665941002601056,0.6798285313019942,51.36112500265924,2,Moderate,53.87420564503517,2020-01-06,15:30:00
0.0505456800632054,-0.4344124154915864,-0.452023961767989,20.971975958919835,86.07361820978164,10.475908208123174,0.9529828775198154,0.2075859602773178,86.52218695590656,3,Severe,89.19574222344116,2020-01-06,15:45:00
-0.0546524228109403,-0.0310057083437026,0.346460589856069,22.947312056881547,72.4099814100107,11.421599318903288,4.676881681347344,1.4483455904451257,38.05021185225594,1,Minor,37.82595047447674,2020-01-06,16:00:00
0.1378810482860603,0.246353751335258,0.2607278247006764,26.1572159081704,75.98948565932012,0.4823723948925346,1.2191186821544506,0.1485513566398235,39.1937274691762,1,Minor,43.81956899537813,2020-01-06,16:15:00
-0.145670534840054,0.4008797016506837,-0.5591575797366813,25.782367142847264,53.70659135402548,1.7066632438617986,0.987733154888404,0.6257228172120132,34.28992541648181,1,Minor,41.933302496982,2020-01-06,16:30:00
-0.0860246501861573,0.1247770112284235,0.0771562537904382,20.808243036564527,86.7766717587808,0.4457373016963756,1.9932602022181192,0.2933420555650819,29.529152509706044,1,Minor,31.62356304015273,2020-01-06,16:45:00
-0.5240311777417269,0.012769985949575,0.5174845267958322,27.991538519959494,71.91338147401484,7.654687225455554,0.6362149766704912,0.956832403923876,25.68752962709257,1,Minor,24.67702194410801,2020-01-06,17:00:00
0.1226240155177004,-0.3927595085504536,0.120875601944076,27.65130976746501,71.57368483093697,6.078795426585224,2.672448203355922,0.9991455526708778,37.68044485842067,1,Minor,39.31028051757183,2020-01-06,17:15:00
-0.2648098123932671,-0.1545281726001522,-0.0879703950228916,26.642308688242917,87.68439807139316,5.534518284477942,1.6557842491997798,0.5004573821994919,0.0,0,No Damage,8.005522641258768,2020-01-06,17:30:00
0.1658605835816189,0.3771135734420227,0.602612317000255,28.71666025004983,67.82061908247658,13.776671370395484,4.15766581090973,0.3520371507104483,53.862803561462535,2,Moderate,53.47887606969335,2020-01-06,17:45:00
0.2785106980867182,0.7162964666997761,-0.3056898404127455,26.34694268941258,85.08234713687261,3.1662489655726187,3.8292037666324177,1.247461087446502,33.05701898166163,1,Minor,33.44567398166831,2020-01-06,18:00:00
-0.2723524645654605,0.0475384420157029,0.2053972444653219,31.51030628396927,70.05546990222322,0.2362364931677163,3.6651860744309146,0.640418629636196,90.16836863056496,3,Severe,95.66904243340257,2020-01-06,18:15:00
-0.160810686173266,-0.0484430090518335,0.2014291276017818,23.141576130328836,88.06001511511359,12.912572595179082,2.5667944154046034,1.0653139107799288,51.21133626883272,2,Moderate,50.61515813613798,2020-01-06,18:30:00
0.2350898820659448,-0.2053981471928554,0.3042565039674348,31.826583530268948,49.27996013007854,7.163326554857684,2.039341843814689,1.4700364098524228,80.92561698032907,3,Severe,82.25361384499143,2020-01-06,18:45:00
