acceleration_x,acceleration_y,acceleration_z,temperature_c,humidity_percent,wind_speed_mps,fft_peak_freq,fft_magnitude,degradation_score,forecast_score_next_30d,vibration_rms,vibration_peak,avg_temp_2h,avg_temp_1d,temp_deviation_2h,wind_max_gust_2h,wind_avg_2h,wind_max_gust_1d,wind_avg_1d,structural_condition
-0.3818890894838536,-0.6791548583566693,-0.5780127997907315,-0.42955947833462105,0.3540824050389381,0.971716837692477,0.8246678980713988,1.236066888492474,0.30456176974744753,0.17819916863344692,-0.7181867767304031,-0.9678978814621098,0.6762358451717683,1.4497129573633636,-0.6738411444257733,0.08508362793004672,0.9129215419985683,0.09574115625181186,-0.42039526793536447,1
-1.985886562272289,-1.7091400163411041,0.03228914197163585,0.32990832993540464,0.8757110395612778,1.0738183099737921,0.45767624882678837,0.03542505556110916,0.6758847833239378,0.6722860928992022,1.19223252889533,0.753314924319906,0.5288970800243489,0.3362853550286938,0.2992936902318822,0.5359602532533508,0.57486880017921,0.20817953174755563,0.18865934528635847,2
-0.6491840776087298,0.29356557812384965,0.19721561991868775,-1.5434276961575382,-2.346372267099765,1.1770830782098756,1.1359175489372115,-0.4200672629488764,0.6392958781119981,0.6129814622946491,-1.3780231316154328,-1.1538175752099837,0.058979436236547736,0.27674855501983137,-1.6175714277388908,0.8395271990610156,0.8731155219709609,0.22142148924034133,0.20425528653143984,2
-0.02163579865085134,0.7880853842477896,-0.11987931497221331,-1.3728454863340032,-3.671289381002822,-0.1991382058675822,0.35620668755389484,0.91379534601881,0.8956796651705009,0.9423495182771517,-1.2745654422341495,-1.0183833607087227,1.251184341679,0.06745904654108181,-1.3969228381295458,0.2655495060539681,0.5051528956184581,0.2261438207195554,0.7337187515268531,3
-0.617316345799853,-0.821744230053099,1.102653714564455,1.0712846449651685,0.295107630812822,0.12447064866626659,-1.356390787284834,0.10413374164208786,0.25962005552085504,0.44010244942888116,0.11788501799737136,-0.17761176408141793,0.24413981596757417,-0.8027638831661777,1.1556968010498998,0.6388760015420254,0.8855315363449436,0.0027051920731491685,-0.572487333595383,1
2.1467613260980434,0.5870911293088404,-0.23733859762012943,-3.48574106361665,0.09953525947416705,0.31360390235786006,-1.4860891759206243,0.9247595120687513,0.3355087998355304,0.2821538520561638,1.3014726493699038,1.7612543796895117,0.24923311722842648,0.8507747335061715,-3.93770848449916,-0.35029590868775645,0.7966369211847701,0.13532180489639278,0.8921332864019575,1
0.2603695942601155,-1.2821773974113955,0.04930295076166205,-0.34674913827233794,0.99997863986369,0.521485035859014,0.16747750121935082,1.5386652745922669,-0.08769089226025285,-0.29621395181562604,-0.35570280686832284,0.026288516338439077,-0.08746071717256744,-0.7273573319429963,-0.24295602212427567,-0.35245322420811814,0.9971360705076514,0.16790577057074382,-0.10521825716795258,1
-0.2236572665994823,1.119388868036514,-0.16144216401810843,1.5354731541870545,-0.2596902966508416,0.9302122882800813,0.9893775744128391,0.4793949091911981,0.7829302642779562,0.7321415379099756,-0.5600696558254648,-0.2826337229828269,0.1887151712239995,0.29752538607808565,1.5263056922181835,-0.34667854793009084,-0.7119729116031073,0.22142148924034133,0.2764256805118891,2
-0.16574615605134996,1.3262341758163882,0.1437736146944534,0.04826266478567387,0.8729770362179257,0.9944574792364413,-0.1209406503854155,-1.870585075836684,-0.5046068490878628,-0.372387738725359,-0.2200476681268402,0.16086244114073514,1.0885996301643137,-0.4997490683920449,0.11786520938082538,0.6902204609142215,-0.3357164780811957,0.21217222893328358,0.6421625697095625,0
0.4182723090806141,-0.04181632525259558,0.7741021851232014,0.7032734409995184,0.6897397991826767,1.161202236157513,-2.2210645851067095,-0.14650008892838798,0.44017683932332735,0.3682110043191265,-1.0942708257652511,-0.9276901579782714,0.6149482183720556,0.5002079391377238,0.6611129961829156,0.7669939544848642,1.0926396649245982,0.13954927438209141,0.7569199028496322,1
1.5772723555962727,-0.7248265537015645,0.22723352712065076,1.6255231449071759,0.9669618414098496,0.31899858637349254,0.08507134725386314,1.4875959244539332,0.5035572082590388,0.46953660981786594,0.4663138394997592,0.6423765227619036,1.3619504505438924,0.997381064599859,1.5565756927932326,0.3890404122900337,0.8967288873983092,0.13532180489639278,0.8491377917085478,1
1.7473330128717726,0.2433858013491848,-0.6527848857543449,0.8128554015812386,-0.25807620166632583,0.44099224783214874,-0.0030724434014575024,-1.243789060009514,-1.8458647287888892,-2.2429550418097857,0.687220770276479,0.9825505778000749,0.612189634343121,0.7738640799948229,0.7424335735202202,0.682018186686976,1.5410315259564686,0.13367171084075802,1.1333018212135406,0
1.2079779063102989,-0.3132421382051912,-0.5826619369907682,1.3883581839261687,0.0022967929480892223,-0.1255292174607848,-0.17448779327092506,-1.2409701510052997,-2.3332869530854286,-3.7119846520818065,-0.15042828050263923,-0.11609716543049095,0.8718453244308573,-0.4069826787922328,1.436710644409844,0.6902204609142215,0.3404295929790366,0.21217222893328358,0.8413220958797105,0
-2.131596064968744,0.0060006629488982876,1.405691201308522,-0.06144249468799468,0.8332570814776105,0.09839279769139073,-0.9420979072393042,1.542791531482228,0.5780694003075997,0.3844434191520157,1.22469870349488,0.9161910337272076,-0.219025252196968,0.41202197783149325,-0.1113111233665967,0.5766932063602481,0.48522336397877086,0.17055241503320703,-0.49746945389872504,2
1.718032532260843,0.3680250343173745,-1.4228084270345829,-1.2229853085609332,-0.7363058283546682,0.5257042701547464,0.7309344774794085,-0.1828714321724289,-0.32610167899380804,-0.24682536383307838,1.1019468918548796,0.9243260715127485,-1.5125407306477572,0.5987590580119141,-1.3527057364568298,-0.6148324560224662,-0.6516528479197305,0.13954927438209141,0.18721491179366692,0
-2.6400780114022218,0.16552610843102233,-0.5669395103094773,-0.12788167386238145,0.42789441042299237,1.09042532019389,0.9065582050350246,1.3645216883122506,-0.06465729921009007,-0.4723816760285715,1.0292096929669243,1.4339391710308236,-0.20553589716311746,-0.3742737723846212,-0.07221263345145458,0.43793704300783093,-0.4644766188551941,0.2261438207195554,0.6206293515011573,1
0.5430465528398347,0.6287819916010965,-0.6618971571417743,0.08027185995470082,-2.392058239640244,-0.028632817969094233,-2.171981439574606,-0.40457276025846156,0.813435884293225,0.7022553955091433,-0.8161787497698199,-1.0522227415868208,0.6019139671692895,-0.08261534079579205,0.0989124062499945,0.43793704300783093,-0.17614949574179425,0.2261438207195554,0.49374297044885307,2
0.575980933880597,0.7407820014437035,-0.4553574747740285,0.5908657028571436,0.06225844554961829,0.7152916997457189,1.1017405006576177,0.1874009326780964,-0.0709665198176004,-0.04619051124596961,-0.8611625120931216,-1.1261962124605547,-0.2221895609188143,0.3536943702642752,0.5631415825060797,-1.289328793636419,0.18609080003345943,0.22142148924034133,0.2219517867892446,1
1.4481596435109172,-0.6768200447029866,0.41785852041369986,-2.76918564829741,0.3636407155946975,0.31510561798045766,0.9558683235953193,1.3009899254250736,0.11809454062655524,0.0900115551848495,0.28180513478991254,0.3803856309965435,-0.16950977389644709,0.25721047915349415,-2.8980312903285936,-0.5837823446976717,0.7982100237486525,0.04598450453752426,0.7537592467246342,1
0.45591414524494733,0.22742604056517002,0.2835922831500345,0.3061534146872248,0.5842131648968658,-0.7532582366094576,1.1043203108793662,0.1331871751654654,0.30188091995610433,0.36105524960315366,-1.8470782814294708,-1.7589858596516443,1.1787765735556337,-0.21293367922856238,0.3408974425536095,0.5960641471364229,-1.4059372588370342,0.04598450453752426,0.21609198674773616,1
-0.8641772742285864,-0.5177226171625605,0.23325016080023586,-0.7691443036904334,-0.7697977072173443,0.6718699451078186,-0.9750827267199194,0.2188046078473476,0.8185333736928101,0.7940595806694044,-0.7517329102394755,-0.7851670370277296,0.3977740837235434,0.09748556634562809,-0.7864412199021482,0.5255829184429414,0.8190505498652746,0.13954927438209141,0.5295502729659821,2
0.47772578541552563,-1.8536379974893353,-0.8581805160961299,-0.17968757258108364,0.9471318239167588,-2.4440116962258633,0.8603328308714696,-1.2962022280268986,0.386951939973772,0.27359836916021374,0.6990438884054772,0.8023917281671815,0.40864350899542234,1.1878374474790312,-0.35622311170765864,-1.5683903252636382,-2.2063858154103846,0.20817953174755563,-0.5103962197555769,1
0.9952817085728907,1.4993265488370076,1.103611259174949,-0.0440660767421063,-1.5482900390306158,0.6241920340498925,-0.19499688476915866,-0.5790543133207133,0.05703195353336934,0.3123501937030042,0.9523335659211319,0.5234628381262582,-4.305071018842156,0.35669938590041805,-0.08564256390216346,-0.7554858285979791,-0.12320507057876766,0.16790577057074382,0.06812694117093061,1
0.3189589999609476,0.12075364892581933,-0.3187187534611271,0.6069885008463645,0.4938279747554149,0.6072050972880209,0.6049047762917523,0.7560983821569877,0.09370953427162258,0.24622386238893954,-1.8525492009738511,-1.7411150309255978,1.0563095351882672,0.4278909815335976,0.5710264000465386,0.07385783107913703,0.0928404783024068,0.20817953174755563,-0.16596936003519314,1
-0.058954901355036254,0.09532997352418911,-0.1445427675945919,-0.14747417395875398,-1.7106033884451957,1.0225362828940316,1.2844657812149336,-0.34688699426479835,-0.5935057070973948,-0.5599466747758991,-2.2732366683794014,-2.131352356770816,-0.7803719115327171,0.5087488187779988,-0.21404422977872714,0.6668454491558821,0.26366312664917146,0.17055241503320703,0.5728498583013769,0
1.2400709277421127,1.567719800099506,1.0156037643689089,-1.4766614820326038,0.11650389411356328,0.5287536694707252,1.0127298590596419,-1.4753071923550078,0.4111799082988265,0.576633286670321,1.1447703689085054,0.6647139436643721,-1.319163362445664,0.06215059629213988,-1.5020016689334823,0.8395271990610156,0.7375103751038313,0.22142148924034133,0.30701884943012175,1
0.7144448052875116,-1.7823698282701559,-0.2782535169696414,-1.323021286243985,-0.08114877412429809,-0.6859673929233605,-0.8838427641202521,0.7734569866786315,1.1367838318140608,1.1509328839830142,0.4774547382860752,0.7128957898851546,0.7330678265247299,0.419734478787592,-1.4192753600837464,-0.34667854793009084,-0.7389360182241022,0.22142148924034133,-0.03336991840289419,3
0.8425762045710885,-1.0918437560027967,1.191637355315355,-0.37845656846792725,-0.016232015517603934,0.12769738494820793,0.4511958248031057,-1.6579034613538859,0.22745428405507412,0.20984656933065018,0.5270234977266534,0.020569046212821553,0.26812130199985956,-0.09919245392838134,-0.3601659542034465,0.2491481329591727,0.4996732804592555,-0.3055834224504184,-0.6997983458571873,1
0.9158746957073102,1.5660574095185993,0.5918858633494631,-0.044032966417449,0.43933994665483933,0.5452468264000945,1.179142033759522,-0.06173361860786538,-0.6820965812665116,-0.42276044145580005,0.6382957677138015,0.6612938188080835,-1.4020483019254588,-0.4281085933116378,0.01779290677722545,0.13825077232250096,0.9301824567786238,0.13954927438209141,0.6741672050202433,0
-1.0169925007866303,0.1708102423187909,1.2166830953335948,0.5904184468940423,0.561266962723056,-0.0773098543930715,-1.0699038330076076,-1.996990135905742,-0.3541434691577423,-0.5051085987311598,0.17251813284456002,0.07599002171587921,-0.41495947318635096,-0.7214373792415698,0.6760628202650875,0.5634826090799164,0.18345704939644647,0.20817953174755563,-0.30953498820847886,0
1.4417476299951146,-0.5255291868152167,-0.04945703043830939,0.6467064833930875,0.546761094025149,0.830179838801,-0.32873530487437175,0.9835266393040629,0.004315858096057537,-0.027559930146884182,0.1291818996264735,0.3672877739699266,0.16741278454605313,0.48056723844659816,0.6055213700786629,0.13791070745435177,-0.21605392474539428,0.2261438207195554,0.6085982619503085,1
-0.5312824535108701,-2.680981430790628,-1.3891666276766879,-1.407088255961486,-0.7129822270010384,-1.9024750524165406,1.3069273207293348,1.3826733122134023,0.69672390199534,0.7520931695660159,1.6931284159742956,1.7177480657242534,-4.021637059627693,-12.516655181660246,-0.34622709810518953,-2.926621035708646,-1.2406782907896097,-11.141174952296204,-3.6288778528536603,2
-0.46750837625785224,-0.06774095864405467,0.14516022557392758,1.5726300181711448,-0.5958808920942553,1.0855589470871745,-0.43137461064312554,1.3452596864253654,-0.04067681957285379,0.04501293032692122,-1.6929152324868195,-1.4895474308591894,0.7943306083118644,0.7820411015140644,1.521848191041664,0.4149482913832375,0.5115909614518243,-0.03537815070044339,0.003357685566853269,1
0.4283530308375898,1.1869760584535198,0.2069138940822715,-1.05228468361151,-1.0958026081699208,0.8612771958143753,-1.3605753078745941,1.0491104943777085,0.4380395172392349,0.3432255960171345,-0.4275678938088699,-0.13645000560277007,-1.524572854536516,0.7456071830708091,-1.2030585505299944,-0.7042119122296278,0.42666335866936345,0.13954927438209141,0.16359030921365866,1
-0.04279918486940352,0.25128610442426746,-0.11635485577303722,-1.6128423029259298,0.15883703377791547,0.28500500998713685,0.4408718114706105,-0.5788130557664192,-1.0894984514486155,-3.7119846520818065,-2.243435728549413,-2.1974217906096754,-4.089525638324379,0.7410884732957967,-1.8016641215969136,0.3877650734118634,0.6841605289585527,-0.5610715521332668,-0.6767820560245638,0
-0.7594016489997625,1.5367148842393736,-1.1767740610009265,-0.37860186837376175,1.0931996758827263,0.046997308248896426,1.2583269142673617,-0.21543072772070337,0.07787896356617466,-0.2902145353694558,0.8889592675767862,0.6008183333275156,0.1434481564450187,-1.0871001676805616,-0.2287898670572347,0.6735848111820266,0.6789925031315285,0.12643207590781844,-0.6646783358275747,1
-0.8356125894860558,-0.4662687499413237,-0.7682849600891719,0.060167584941225746,0.06671735332426124,-1.7227652047371365,0.4455095665538397,1.2981668278959746,-0.28559017793079744,0.10814391406356305,-0.37402242318790835,-0.8324849083062741,-0.32100295605278506,0.3141652795262141,0.02684649318503272,0.8509054105690056,0.4220413551392127,0.21217222893328358,0.4293717922670247,0
0.4365378930508659,0.46922189952161814,-0.6255345257007351,0.49854086478066223,0.875850612288383,-0.15165203935146776,-2.045060445524615,1.4836717207822665,-0.11334148234921139,-0.5546250082507078,-1.0969305125153557,-1.1207128938912956,-0.12981616122397263,-0.7366479700079601,0.5872856882665091,-0.8125225122450227,-0.38275076884136605,-0.14650732865330426,-0.003603956226466359,1
0.11537483082317165,1.806397456546183,0.32581158778464625,1.4010905992843823,-0.23174396577448922,1.090559853370474,0.9942475346083959,0.06734434650100564,0.5633808217795654,0.46449195630032136,0.6749340228138525,1.1491967499942788,0.22565913742358285,-1.4308372856754275,1.5242980705729758,0.438571888807939,0.6269245426812589,0.12643207590781844,0.15065294736874887,2
-0.8562391041743982,-0.7391694447798304,0.8414886996095824,0.8583886435654805,1.0117597693842586,1.1710004974648642,0.3772110783265623,-1.5490302417670332,0.7357816134395769,0.8677130758053995,-0.11427388483815161,-0.7713818284746785,0.16543600327880387,0.362831447537477,0.8342849513853474,0.8118000699812241,1.5909915069745615,0.2261438207195554,1.1691211620281952,2
-0.9442483376323058,0.8454831573855323,0.1219557149652152,0.04969965237841542,1.0961601807334163,0.46445184164517117,0.9268622687489535,-1.1822247951698441,0.7393948542831082,0.7577658628799399,-0.4896101239668804,-0.6550935022152929,0.8953040920927946,0.3051054966947964,0.017380687947493412,0.43844818052502865,0.5991897745986897,-0.6335556965606896,-2.292233176246935,2
1.45274545515836,-0.9276654577121363,0.21364703341366248,0.20004062117447224,-0.804074798908113,0.8416153408133866,0.24334218509727587,-0.34257560587385577,-0.635366483432874,-0.615149733908054,0.4033640743634159,0.389747981585051,0.7556588709201162,-0.6166538723045027,0.2810891726914093,0.6388760015420254,0.8291122795076871,0.0027051920731491685,-0.6083873905349529,0
-0.08433954353357762,-0.047529415931796895,0.6858362119796644,0.19633466252969306,-1.52973606357063,-0.7694626146705911,-1.9212247266494136,0.7738662777385389,-2.1037746080676096,-2.7516320788112423,-1.3735894470999268,-1.1344678742761711,0.9986162903405377,0.5636266120274198,0.13288224333284654,0.5359602532533508,0.9069697411217434,0.20817953174755563,0.17794682958047403,0
0.7961117394637607,-0.708719090573366,0.6506485188457019,-0.8986043785798854,0.9240526600866578,1.0423094775653339,0.42820598830927786,-1.4735985365115245,-1.6847924945927708,-1.7942451025786281,-0.42914040244810064,-0.9140382012054801,-1.1494288569627433,-0.34539569074521814,-0.8432344728601248,0.20845266446002042,-0.4301298302267588,0.04598450453752426,0.3859069779206181,0
0.9035146699994459,-0.08928274498377682,2.1812478248549683,1.1575249969026673,0.4515608826415852,-1.6429189283224155,0.222566791708894,-0.43771814355686667,-3.119374672112732,-3.7119846520818065,1.697512977736277,2.1049270597822587,1.4601292580120033,1.883129477299744,0.9725124634530249,0.47302416354095106,-0.9190257760793538,-0.26326603194885173,-0.351589824696888,0
-0.8492596847528151,0.3299273510492197,-2.4528662615004717,0.03333109482937027,0.2996398091677906,0.9062175547020713,0.979838131383265,-1.1707321834126971,0.4267519349377381,0.3477790597802865,1.1251812228041727,1.4245037994255203,-1.8823501353776728,-1.6691669592014668,0.22973240807761183,0.07635316105678128,-0.7626082519906383,0.18936567158268738,-0.33868165017147234,1
0.6323675970705398,0.5909208002878167,-0.2629022719444853,0.11405519565906708,-0.07641549983046406,0.5225101208709017,-0.20338013888182097,0.483514102251153,-0.18738325380725857,-0.1590349256074247,-1.1439285763825207,-1.360203348457885,0.14603560914445385,-0.6091176959628589,0.19552056825777975,0.5970472539038042,1.4873388096372004,0.04598450453752426,1.1050556571867702,0
0.612272689891326,0.4001215344927276,1.2536129771495579,0.02577532049664459,1.0427377604081243,0.878855649966596,-0.4481955456525898,0.7611991091372671,-0.09111418252852055,-0.07820263753822995,-0.04202851286732672,0.15742530003974634,-0.019367112156431818,0.6151472947238399,-0.050490999958777344,0.2796536735779828,0.9938250249818662,0.06448339478620123,0.20955911336529673,1
-0.8134165721234028,-2.4191984721153825,0.6562180409274772,0.8363985039601194,-2.2907109033191317,-0.5624121604134927,-0.6969079031999265,0.20757543824018568,0.8488141801281784,0.9874189155787118,1.2312716899109493,1.4505818006828721,1.2666953825533143,0.6665309860893326,0.7788118962659152,0.3264171064672906,1.0022665236118509,0.07709102150195739,-0.14721261870822108,2
2.297830218323809,0.9294118276044658,0.40510597578586427,0.20002648267823891,-0.20720572286556643,-0.15606789143126268,1.3452207305162371,-1.1756588276222155,-0.33409130173556306,-0.006533092068559044,1.6833269516138094,2.0489245475707567,0.5826786543928987,-0.3729721750288367,0.25352708878025915,0.758649016841343,0.6904029297536939,0.21217222893328358,0.9951295148648781,0
0.17325730351087265,-0.44943702927300827,0.09014523130637545,0.770378745912734,0.944044378641985,-1.9075918155203124,1.3000890015751314,1.1904211079541756,0.4557189233343115,0.2801609147586278,-1.6690190263923521,-1.4074891680580202,-0.43258714122484376,-0.48224385849674173,0.8306819118435809,0.34618696927218195,-0.18047943038633862,0.21217222893328358,0.8163975813382638,1
0.17302169509999551,0.15122514291406916,0.7185229209107374,1.0177450761052083,0.7550587127070417,0.5278470893463393,-1.2682237186540475,1.3978904682933035,0.5293861447522213,0.4540316072911969,-1.3518508507178493,-1.0576197045650395,0.9401654847891485,0.15508401368371477,1.0166796666973859,0.6821536527762772,0.9416321777699336,0.2261438207195554,0.9394754020322238,2
-0.7652596054044919,0.9568909267733385,-0.8732992215149982,0.5578870369758185,-1.446946966730875,0.37602386675568206,-0.9786428787579782,-0.30337989689235845,0.11970076902257666,0.14888271695635885,-0.029836559457220753,-0.6393989153378001,0.7504559157228797,0.7023672883983257,0.48789670875352203,0.20483837195263888,1.0911992113609144,0.2048670627167452,0.00870761131868609,1
-0.6607859471959472,1.3715144898183969,-1.1959194889596598,-0.609081832456552,0.19645117895276953,-0.5713022951350726,-0.1772651405756363,-1.8330486364638205,1.0353018222108168,1.1211110727727862,0.651943603219045,0.2564434572346317,0.5068273382564592,1.700652741019409,-0.9237110840820892,0.4549092861647701,0.5669458214407262,-0.26326603194885173,-0.2818354372204172,3
-0.28373407776170717,-0.1986181168111931,-0.014018933430155648,-0.7969304528732493,1.0715109919817578,-0.6007281728723954,-1.4195082194899453,0.17987449945970962,0.4259828088610872,0.42355083390317266,-1.8456276954204842,-1.8545712013432634,-0.7119614959463482,0.7841531675118679,-0.9398706063716368,0.7594953638653548,0.2204393274280882,0.17055241503320703,0.9486553881894995,1
1.1589977172107098,-0.24215450407980982,-1.4334150360344076,0.30383745399016227,0.9690311518942017,-2.753249072644508,0.9142822117630681,0.6222471412152715,0.6073645909549974,0.6681441730305845,0.4575992664909043,0.19983598182733592,0.2767633691762321,1.3199927301706482,0.13837012463522574,-1.5683903252636382,-4.116213438789849,0.20817953174755563,-0.7158929495236649,2
-2.6232451382900095,-0.3280826724483345,-1.2521575962372293,-2.8800050858543007,-0.0500650406274806,-0.1635097583501081,0.23454369294286023,-0.6003548746058514,-0.4079659913607791,-0.5110194933855207,1.3755459177593894,1.4179530254795052,-2.184401428016279,0.471404310921308,-3.091954040603277,0.794201540596019,1.5159093830069643,0.16790577057074382,0.07247469544700633,0
-0.3866275316297231,-0.02568732532319712,2.133665621639376,0.4337046017401297,1.0803940240754948,-0.5128995653959759,-0.4169202499137579,-1.6013792336544643,-0.3194786393890879,-0.7102697456499966,1.4823907425201046,2.0091396146889196,1.6287534656109175,1.058161748913828,0.3127237371406223,0.3890404122900337,0.373715083824835,0.13532180489639278,0.9456631271479115,0
0.6011978596559835,-0.6210358024139515,1.0999437491437665,0.6723813619111254,0.8402027394869066,0.48607477069301247,1.1538274991451738,0.5440972461111084,0.6161692116459708,0.7203933821587883,-0.09211055647982964,-0.18367908497956983,-0.820544571709039,-0.0036113281549618207,0.684973991673892,0.6614105781546319,0.8882096628407699,0.13954927438209141,0.27776294639326354,2
-1.5130437122377505,-0.18513017374757232,-0.11912723847603507,0.912449114685941,0.6337589264206119,0.19237067529823246,-0.012809230557396686,0.2086170365602974,0.6631556942785262,0.8752855871227224,-0.174756431205343,0.1723375175921893,0.7283018442718796,-0.9566853811129309,1.0129184517311045,-0.3614943040031104,0.034372500965959576,-0.14650732865330426,-0.6166117624977824,2
-0.5694337055995701,0.7607241021509061,-1.4271394840904952,-0.15899963949296178,-1.1160072512582875,-0.051373575073388196,0.7201591045700783,-0.43517630868882123,0.2545744440374797,0.2762384425751909,0.20278103317021567,0.1909816589175185,-2.5226070034921695,0.4789913476644183,-0.2214978213809628,-0.4906029420355823,0.3552097903971319,0.13532180489639278,0.8535540601650752,1
-0.8181180243681391,-0.04981480473098358,-1.2115237052947112,-0.9288845570900667,0.9281793121459533,-3.0103155802717203,-0.0818023057834526,-0.20175371103982845,-0.06049134098035922,-0.09026959333372012,-0.10406140747640012,-0.12516112596576418,-4.351863500720565,-13.66865792672244,0.03698685401539577,-2.926621035708646,-2.8725166475630477,-11.141174952296204,-8.302103750568032,1
0.849562932629718,-1.5010512946393382,-1.0130592055338326,-0.7789299378141336,0.40399439144428856,0.8017227457376538,-1.6108538090714049,0.276531307830571,0.6308109694948755,0.6257022749691616,0.643903581881193,0.3400501584571137,-1.2923837996101248,-1.075283768236426,-0.6164179814409313,0.17167806736418859,1.0529179385760272,0.2261438207195554,1.00341890709802,2
-0.4840782870482216,1.5659600565907965,-0.03722136073548832,0.3766312193563714,-2.0258859635588515,0.8360049183070469,0.028201248260638512,-1.76930463663811,0.40590297540159753,0.20082397388843712,0.3257411634194189,0.6610935092566101,0.23628511199378005,0.4088739735431709,0.3379804682834931,0.8555238440051978,1.3696594547794003,0.22142148924034133,-0.11250391266879341,1
0.9741106585753824,0.4691103000556234,-2.04587152384816,-0.5858325959194538,-0.1300051077122288,-2.0606718165336226,0.17529433197367053,-0.4332597452380295,0.3126655024617149,0.295823012653675,0.8568884485339422,0.9817138782792745,-1.18881089935392,0.6232566704343615,-0.6880048978436643,-0.7554858285979791,-0.36807825697795443,0.16790577057074382,-0.09026742574593487,1
0.7487625942181658,2.4243159311319147,-0.5631188500863428,0.44416559946616757,0.9997023999033986,-0.050827577487329904,0.5005785773626079,1.060830024725861,-3.119374672112732,-2.735686181154044,1.9217636590909313,2.348711638124411,-0.5681931361787972,-0.14418943638432505,0.4712104453568447,0.660399471498914,0.8153332307460422,-0.17346398021314807,-0.2693366539340354,0
1.8607189118089287,-0.7539813724655384,-0.16521266334534954,-0.6798974922001269,0.48759376025528883,0.626040093700152,0.9908730458891611,1.3135809292125116,0.6622439727360475,0.7003241071446743,0.942292508573523,1.2064011790309463,1.5323180426458098,0.2748332749554379,-0.7252504923304051,-0.49936102624380513,-0.8657492184770228,0.13954927438209141,0.6626479334513431,2
0.686815717427712,-1.3544766447324046,-0.5691191565178829,-0.5825735059123031,0.004019011529047896,1.136311087254868,-1.3399576676145002,-1.3271976865115969,0.3757248691144046,0.27839448485720564,0.13255455804555055,0.13238696800027813,-1.124767770486898,0.4975052918813781,-0.6627702702909151,0.6523705350193036,-0.15260813333879994,0.16790577057074382,0.0715320973641404,1
0.794843673254286,0.5056434833643156,0.08263818232956459,0.5667474499169782,1.0858165432881657,0.9668423059450437,0.24719417798986212,0.5637822744747379,-2.221138587563514,-1.6568227665791424,-1.1127064271623544,-1.0006204142950346,0.4717804033532181,0.35228284949690136,0.5387441243770227,0.8472593401826491,0.6333817213346823,0.2048670627167452,0.014923894803206071,0
0.22106348430323763,0.4941893046398065,2.1992462444875813,1.1326634844079866,0.9518509905913627,-0.21211660895362758,-1.4571718193641772,0.1185327452587905,-3.119374672112732,-2.144181315137593,1.5961598895777134,2.1410561378833273,1.7221903487534942,0.8467101754811346,1.0640437391207278,0.8147222706077405,0.9469163737480226,0.13954927438209141,0.7399276531823576,0
-0.8321194942838365,0.2710462321786299,1.0255294499138,-0.033302728078727833,-2.1858397810846775,1.0871293157807986,0.5980576134151487,-0.9069092886075554,-1.6921869570545143,-1.987444128738858,-0.2470682770044029,-0.351035250225492,0.5568052509357566,0.7123977328244588,-0.12606629073183992,0.5396543961729438,-0.18753611288637212,0.2261438207195554,0.8153576036681521,0
0.29429895560514585,0.519335756434102,0.29676665961242304,-0.7394213459877906,0.779156187535769,0.7798002998717829,0.3011043249558346,-1.3872536361079049,0.7543046709856023,0.8256937892404611,-1.6876326662454533,-1.6409036858045434,-1.160337690277768,0.38466484626268693,-0.8056546110538972,0.6668454491558821,-0.6828364470698812,0.17055241503320703,0.5412147585750698,2
-0.7603779300054355,0.6349143447740848,1.192991817457169,-1.3725943981043625,0.7494720961302306,1.1394628818502515,-2.057870572331301,-0.9573234175784088,0.47788277534825424,0.453255950836805,0.10758712010624734,0.023570183463660146,0.12062688774868949,0.16639218684325735,-1.417069015461122,0.6821536527762772,1.111904715737639,0.2261438207195554,0.9815794791060846,1
0.9415315270393204,0.23763162516526412,-1.4399084076734754,1.9121449843459175,-0.8826026110794433,1.1157597795743772,-0.41513150344899613,-1.9411670997749086,0.2505778991629478,0.3614234548566804,0.20927921512631964,0.2089777779432744,0.06149483350859032,-0.42815824136205716,1.9578153989012823,0.6069142224781747,1.0670531441800444,0.0027051920731491685,0.6574422092710206,1
-0.5730001777150785,-0.35899021723876806,0.05949893598699994,-2.13275178431889,0.1958974558359335,-1.062700017702884,0.3949108874646265,0.23018035235595763,-0.709382566101157,-0.45200336740075564,-1.2901616856726417,-1.2917425669794613,-1.4339789573277943,-0.30987871398391037,-2.082378169799717,0.47945630940118966,0.31289000800679123,0.21217222893328358,0.8086930983016176,0
0.4257740798202623,0.37216120875063025,0.13417610041441352,1.4837011316220154,0.8782685003025632,0.12723775799645695,-2.025121023078487,0.49452394220619145,0.3853172698261051,0.3488812939419106,-1.8653465929790112,-1.8280065242222743,0.918112730211003,0.4307901744747799,1.4624646020551637,-2.3691923553886682,-1.3111056739708709,0.20817953174755563,-0.2465447356188685,1
-0.7986552432711482,0.7614807142699431,1.1945706232155175,-2.0973832711986313,-0.6841834486783842,-1.745445228396902,0.6521360204337525,1.0955483660718337,0.5286322382802127,0.6775542004104494,0.2151841764793588,0.027067829657679798,-1.2057581575684093,0.05321901714962754,-2.13687127771314,-0.5334589870227,-0.9134124055735412,0.16790577057074382,-0.1789726912888234,2
-0.3314176392519691,-1.2382215117246205,0.3698246476649488,0.18216262287337076,-0.21162151310273078,0.07374643092769817,0.26782704897687615,0.13455948923940866,-0.5468317572022438,-1.0872149195606169,-0.28158975554063503,-0.039453823789599995,-1.4358144005735476,-1.3642749343232443,0.3419580587009409,0.6932177910411224,1.4955744758718468,0.0027051920731491685,0.008588791758339728,0
-1.2288301985905323,1.3418959034149123,0.4935046119805563,0.7789306232157727,0.46459344310213074,0.9699625055831625,-1.3681874950598427,1.1690104662531635,-3.119374672112732,-3.7119846520818065,0.48783778082178025,0.19398174243890648,-0.6152273896605558,0.6421575298315373,0.722535952007161,-0.14632800940477234,0.0664058169296054,0.16790577057074382,-0.11144956270677954,0
-0.9809340764932657,-1.6857129224928586,0.8245011306025906,-0.5867905288669559,-0.09726417539456253,0.18317359095541794,0.15578990342861068,1.2162609895351644,-3.119374672112732,-3.7119846520818065,0.7651997277142288,0.588406528867628,1.1555818198437444,-0.06350686057591193,-0.5754488315921656,0.5960641471364229,-1.121636028703996,0.04598450453752426,0.27556826710119287,0
-0.4903002106765105,0.4148340737798306,-1.248012233379598,0.8614079848211859,0.799866803243339,1.0914194051247612,-0.06736289449370543,-0.1484492644033833,0.5309253715310615,0.5514674180361923,-0.2293057084905004,-0.06997729005204291,-0.3371113296393667,-1.0035308454412526,0.9670371327205527,0.6932177910411224,1.3758030903421286,0.0027051920731491685,0.01769973587387784,2
-0.4277140675485368,-0.4826579089948818,0.6424338006412272,0.8865099583858415,0.46662912196488904,-0.66637642739009,-0.39001061440290924,-0.6484439666502645,0.07666870787510224,0.13629381382974826,-0.9030537986004658,-1.2370168580047987,-0.5269522642753135,-0.38187454909745683,0.9364053152341445,0.6962830381011395,-0.2878800410272249,0.1778242091011124,-0.7872750903304402,1
-1.2036305786539998,-0.018714796123699654,0.6476585691586194,-0.4983610009200265,0.14916793432920608,-2.6927546003735,-0.628809849028924,-0.04349765129583266,0.15539943422203611,0.52236601696176,-0.35554772204213575,-0.25801473114094015,-1.390173347237421,-0.6317941196962807,-0.4044379257006988,0.5685910972645424,-1.4046893007526138,0.0982353110746964,0.3770303702583498,1
0.9518217665663381,0.20894543224354167,0.670452526483741,-1.0864799800322247,0.993319164972159,-1.8549500652904216,-0.16671570966435525,-1.9374243975867709,0.24578461400489524,0.25876105496634455,-0.6303597086514141,-0.6596951480127524,-2.0584078761232245,0.6859386001388607,-1.2268332198458962,0.3877650734118634,0.7286455798531551,-0.5610715521332668,-0.7773603671509035,1
-0.08450126598811594,-2.602418854893774,0.2346061343601182,0.23459506763701207,0.29053858499119184,0.7884065044377895,-2.116884685038078,1.2221899094281488,0.6007873972761922,0.4184180483513102,1.1107222406235582,1.639537508700586,0.017229301618821614,-0.1456786636639405,0.26146045239817794,0.1830789664513207,1.3347479860974127,-0.3055834224504184,-0.6696885580561227,2
0.4685531052452552,0.0006257223558266037,-1.0234092213383426,-1.3653528459121844,-2.7601752374303152,0.9890357243581165,-0.6996581130877652,-1.6037827228260628,0.9600411387190658,0.908182316572538,-0.6541301059494534,-0.4213625707855993,-1.9029717328317826,0.47717819034576053,-1.4761586092444785,0.42107316026827873,1.2400696751999774,0.13954927438209141,0.364796975341136,3
-0.43918983105549686,0.42532440079995065,-2.1392262043538985,0.8050901166490863,-0.07058774510811035,-1.7631373874434921,-0.6636888882865843,0.010079864420993873,0.6367006924729827,0.6082073592353869,0.7143380087591931,1.0881278332102797,-0.5955955168303825,0.17855994209062398,0.7996149589550292,-0.24383688541035356,0.4509417783262249,0.13954927438209141,0.8348488366737514,2
-0.4567036945463107,1.7760754895239528,-0.5451425572997776,0.2141095462016947,1.017954852205939,-0.9455108540317516,-2.225311300851998,-0.8283990923359916,0.017974111246553747,-0.22296326325979895,0.8064200138432573,1.0883517314494522,0.3981273760313958,1.4327884858326547,0.025396812022906966,-1.5251746901289778,-0.5019545193679861,-0.26326603194885173,-0.7947256504772897,1
-0.11334238349096694,-0.37788948678552614,-1.2811884180201327,-0.4274447784018179,0.9237870087671158,0.7473081463771872,0.09062851495378263,-1.330243071123519,-0.5516753765314824,-1.183805190120838,-0.2599973553304949,-0.020413573160453023,-0.27692475808622646,0.14866590245620806,-0.44667867103800984,-0.5837823446976717,0.7441949765573653,0.04598450453752426,0.896871316526287,0
0.7414086710437394,0.06434194134686005,0.5016537330632959,-1.1041171566859047,0.4401916672490182,0.6622656909444804,1.1077981155837537,-0.795966813646936,-1.0301275105311656,-1.0472588954361712,-1.1558494622015418,-1.1181048421325868,0.2681609020728994,0.3909292915520665,-1.1850435873467695,0.7669939544848642,1.0895025321507885,0.13954927438209141,0.7838644151601027,0
-2.5109552491973077,-0.2105714543499729,1.8969066856898633,0.5378362969038533,-0.17699121589012928,-1.489907272488328,-0.30666369421666045,1.257029912787794,0.8124441951061304,0.7626876509720129,2.030844551681441,1.5264147674312882,-0.8148226653982621,0.26495781158547793,0.5194239969137743,-0.3029935468993665,-0.5333181477522376,0.22142148924034133,0.1774152852264329,2
0.06097203580995504,-1.1275082524867441,1.138355099782029,-0.09281954014445187,-0.8775143916693591,1.1451524106890505,0.7698131423958448,1.245732328051072,-3.119374672112732,-2.6841397161862433,0.22975233735586884,-0.09785689393738815,-1.2374952412713982,-1.2303835652860773,0.06342636154021068,0.6932177910411224,1.3489794311932255,0.0027051920731491685,-0.09798457872731887,0
-0.8736397413139056,-0.5880025788035294,-0.16435486662754878,0.36846427810296434,-1.034597481255347,-0.2304387974531886,-2.1625440299032763,0.20891825050643545,-0.03880609608063291,0.12187969123413073,-0.6555772092979211,-0.7695998428521394,0.04566425699655849,0.2660121490979279,0.34719874845831056,0.7338614898950705,0.6780931311034167,0.17055241503320703,0.6620654571735386,1
0.4016736064986458,-0.7534636089744607,-0.5137115694116633,0.8012242997163622,0.6960712308108139,-0.6642539136302387,0.5959970602530329,-1.2226746247859244,0.5097422938226797,0.6549839789400764,-0.7531532549708221,-0.8336301521541847,0.16960367314652938,-0.2014271145181163,0.8342191412573267,0.41104391540994417,-0.41666878442579786,0.2261438207195554,0.7910139160204084,2
-0.3245698453041584,-0.27926332661079417,-0.5498217313863193,-0.5013868123081082,0.9360475316380683,0.025519165115040984,0.03024993327881568,-0.3617599128913203,0.4844667711770688,0.4687074200219017,-1.1834222328111403,-1.2665734500865253,-0.46804802386194727,-0.06368170354706242,-0.48926451646003555,-0.5837823446976717,0.8342347820464129,0.04598450453752426,0.7274969463703623,1
0.7427160013613474,1.3982207350538687,-0.0504087692575145,-0.6747610150044007,-1.7130550827178967,-0.8350767287415882,0.6915550171097072,-0.5903540052814781,0.8243309838030359,0.9467302804941701,0.12726073767438764,0.3125726551786927,-2.1395283797169755,0.46843212006016877,-0.7534294603027896,-0.35029590868775645,1.0441416440330034,0.13532180489639278,0.966120272908941,2
-0.9906197475341331,-1.2452185790552814,-1.4569880744058146,-0.04579306975134178,0.9010368156622179,1.1090728114009794,0.10332462026781922,-1.940666779782196,0.5869370718636057,0.49010021186396824,0.8487794643022887,0.2329277421397063,0.9629832791745669,0.052286929708532215,-0.04564368319877402,0.7683143638987708,1.5422584103642776,0.13954927438209141,0.5723188106114256,2
-0.6248295980043239,0.3759586380312526,1.451306041997287,0.14998904393062043,0.9206148035227367,-1.1323842048531523,1.016826300311772,0.6979863377354351,0.7253432929014024,0.5874148765860538,0.3536021401671031,0.5878196817790318,0.6534799029373441,0.6402748824126648,0.07452750741929753,0.271381036894206,-0.6259875089703787,0.2048670627167452,-0.15728801298190934,2
0.3060754187474986,-2.4381703550724083,-0.6272014730517291,-0.21327264404971386,0.9233447881879955,0.683949967504378,1.0489383134018924,-0.9275113858635173,0.2759721103764637,0.16689199591439904,1.096292075451383,1.4705874095147893,-2.6745184254085004,-0.09479772695684001,-0.1946050353579215,0.2691119946072547,0.007234166216456589,0.21217222893328358,0.7957180445753873,1
-1.6113024740368287,0.7312993952634949,-0.9129385290602661,0.45699327692352293,-0.17475267921732068,-0.8320998595395325,0.6082913454088397,-1.2729767678989603,0.8741938330330211,0.8515142146996683,0.4813767838390536,0.3002033946663939,-0.5549909489694642,-1.0417966603200812,0.5764062001480879,-2.2624206221147576,-1.5887265669536021,-0.14650732865330426,-0.8261696417101771,2
0.4767707203609803,-1.3043590668950737,-1.1890801598017062,0.7718348457039919,0.27799307415955377,-0.20285047264727202,0.3206266530362493,-1.6374364730966324,-3.119374672112732,-2.2899725964534414,0.4190708588670542,0.059106087722420986,-0.8413885264785151,-1.2661673093991468,0.9021499248699131,-0.3614943040031104,-0.01800262931765347,-0.14650732865330426,-0.7102557606018444,0
-1.8292195159723341,-0.01317666273707311,0.9087237021978306,-1.0695203511088642,-0.06676307416888873,-1.729818733016542,0.052727076026609775,-1.6253423719192621,0.22910407311616193,0.5364425243760343,0.49831601198495395,0.5701050536095075,0.9371881041438762,0.7888165649132387,-1.2305313405095488,0.8558060552544426,0.969210137454297,0.2219865204666332,0.9250289065576032,1
-0.06082906118099935,0.10338804969863827,-1.5765944075212874,-2.9827712428510376,-0.8063279056191824,0.7689781033086995,0.4967772380360588,0.7440945863437289,0.2525864728512666,-0.00821193935834936,-0.029949334369999487,0.3968443969718871,-0.012376888842293187,0.23509740589985267,-3.1171322519913764,0.4403275525965052,-1.2288019723455434,0.22142148924034133,0.32792060988180166,1
-0.09725828719604394,0.55347654076029,0.4616753153086037,0.962182037404885,0.5747254427239249,-0.7438265643860367,0.9802492089819579,-1.7796220249605779,-0.2559105552079707,-0.2248077199388258,-1.4751061561294776,-1.5604394786825508,1.633856733396327,0.7123068161055913,0.9029848948543168,0.07385783107913703,-1.3636649203969786,0.20817953174755563,-0.37217507778893827,0
-0.5275772903095504,0.7000562715061744,-0.1033915232186822,-0.7114383323472323,-0.07169825860304223,-1.0979715304441233,-1.2276247541531613,0.0773140110554375,-0.5972736510848294,-1.209728038526487,-1.0930129496490888,-1.2196036522198972,-0.8247465429240851,0.621115672944594,-0.8190734919540658,-0.6148324560224662,-0.1373676677779941,0.13954927438209141,0.23120169349044856,0
-0.3217079467573714,0.041856157128014486,-1.425304805988833,-0.06551877627160567,-0.1564241500519921,0.6703439072329596,-0.20359575021120782,-0.4413668353892973,0.3137099500573267,0.23708470269728846,-0.14811694885079735,0.1883894967944947,-0.5577290373026791,-0.2607888669938348,-0.024571059262522794,0.41104391540994417,-0.7970486587254153,0.2261438207195554,0.7686630024914313,1
1.4381165749508158,-1.8718121267407328,0.6934062634753636,0.6188108157446196,0.7636423923085474,0.6759439388524766,-0.0009800125167629549,-1.4282726259003085,-0.03356264973841459,-0.19552183739421752,1.2302300868658786,0.8249113057411702,-0.25546410821108784,-0.05987693011343803,0.637131799219875,-0.40197649923553447,0.20805230090492283,0.04598450453752426,0.8038795075454049,1
0.32624732547341606,0.08424129850854305,-0.6911191483416865,-1.9582584766335716,-1.518527331965955,-2.812192530098893,0.5529079065320447,1.541484934108688,1.0435675210903788,1.0953781618440213,-1.2369971121290049,-0.9978952021877066,0.9885343629408749,-0.600124360896279,-1.843347886634876,-1.2001425421981793,-2.002744922321825,0.04598450453752426,0.16146107830574302,3
1.3465483628268748,-1.770562996360113,-0.17615161216566283,0.9674547746103954,0.6670367689190105,0.8361778924939014,0.38111619863254537,0.08967044602055223,-2.0067919219989903,-1.9098444351281514,0.94499733316462,0.6978836496681662,0.041167826829398124,0.8929763814343998,0.8886080825296203,0.7594953638653548,0.01902454052353013,0.17055241503320703,0.9600966397504007,0
1.6642388957540852,1.1962515577998805,-1.5116259978542874,0.8114106277715758,0.6084054113728393,1.1071768094742775,0.7947814905444499,-1.1583569889023508,0.5440314056847173,0.6618852155228078,1.4562525849048182,0.8170162574909353,0.5542480422619338,-1.1112131851107057,0.9274767153875696,0.5167033126011664,-0.9273238861623788,-0.14650732865330426,-0.18290881540775997,2
0.12213596384689489,0.1858142822696271,1.291908920062311,1.0487954272016564,0.7218525463295243,0.6284407573564502,0.5679450239609259,1.4676673929555841,0.5753973123742429,0.476504940154549,-0.17542583150192304,0.2415215155393378,-0.046493271531602945,-0.16937615905051792,1.0784415772384608,-1.0177557924967295,-0.6820724658753121,0.1778242091011124,-0.623715823196668,2
-0.3753241725753831,-1.1522377471982572,-1.2880845159616323,1.04318946019223,0.6407441692832069,-0.11161972454845268,-0.43249526235148983,-0.6505502383616415,-3.119374672112732,-1.411903201368928,0.37874287938147727,-0.010183132761499743,0.7960995104349023,0.8443798396493565,0.9721000154379785,0.8558060552544426,1.4005713691265385,0.2219865204666332,1.0827503364205968,0
-1.3498347485941486,0.8092142985183507,0.10591220235515893,-0.0008241042882720171,0.8892122773073591,1.1200157041026804,0.7658656540612101,0.11028786865992259,-0.43593855568420514,-1.0617195862551998,-0.10681472062149298,-0.049193672612987814,-0.4175447489784994,0.17279239281531159,-0.01622556398039166,0.5766932063602481,0.14990676083585963,0.17055241503320703,-0.46572867249378413,0
-0.7594537071345688,-1.1014602486277172,-2.0679688094480295,1.0808577731640856,1.0434673609628058,-0.3349932841134508,0.984274275960245,1.4438203097372326,-3.119374672112732,-2.0758191976737934,1.126833603434295,1.0071780839699187,1.4625295232734534,0.028366454000189313,1.0922820865378047,0.4892076772097131,-0.3496553272658083,0.16790577057074382,-0.16091806795563246,0
-0.5634877614388407,0.9354752028393627,-0.037616943789506974,0.929117818784318,0.8068853742618608,-2.4937213306831185,0.7890840527272286,-0.30082626201605706,0.7191948485172592,0.9228961404813826,-0.7128484520418247,-0.6869948272365887,1.1299093257893595,0.8719388246316296,0.8513367614255275,0.6433842294699184,-1.9053663462442307,0.13532180489639278,0.1906931854933374,2
0.4716220733655529,-0.6461278125179681,0.5195513245817766,0.9274502843258748,0.42115559642180544,-0.9721714081331009,0.9570021827370384,0.39196399881022564,0.14250074231906798,-0.00996129764697073,-0.9203783307347088,-1.0287690727214716,1.0738572457357798,-0.06401030633917151,0.9471148846541764,-0.7359735323598744,-0.44582563174442547,0.04598450453752426,0.6301671911402853,1
0.28293011332330037,0.27641078297680444,0.3462746845006067,0.25037318152552285,0.5904702069554669,-0.6053157102119172,-0.17100704530233882,1.4046625640577977,-3.119374672112732,-2.5612770186537634,-1.968647768011312,-1.95308295543728,-0.24243521391599235,-0.1783812024067182,0.28111262366195877,-0.8391137217203909,-0.6905214633601386,0.1778242091011124,-0.5455520444091198,0
-1.2177331851464048,0.6488839762536203,-0.3876209199959264,1.2661706896473979,0.6468421172475164,1.022189555333344,1.2866860867783572,1.2166812870147328,0.46744904371475177,0.43159713240015113,-0.26315888175539504,-0.2374233964004378,0.5531445216622356,0.1832458952269424,1.2645547293830315,0.7683143638987708,1.5322489867227973,0.13954927438209141,0.7238154203760182,1
1.1821430384961726,0.02301169870363145,-0.11359862320412704,-0.9080620712302154,0.8226124069437964,-0.5626497293171597,0.6233424336273373,-1.6149155169799996,0.9206965843598929,0.9967538478194001,-0.5272146583159096,-0.17024108097738458,0.075592370614902,-0.844381838095208,-0.7745818220149346,-0.7934913793921954,-0.3165011024656802,0.0027051920731491685,-0.6383124126647357,3
0.20399638305679016,0.46833693809449434,-1.1825705853997714,1.1894138546843194,-3.281605627529982,0.9877478232873106,0.9336213093755992,-1.0503614963486316,0.13248099450373593,0.07466897694366788,-0.44607365957600326,-0.16945831024142116,0.8203723939387235,1.0103104058857533,1.1054399928288001,0.7774710373709127,0.42297926754411924,0.06448339478620123,0.02427546806085829,1
0.29675932698546464,-1.089525284949332,-1.5779635772775633,-0.025314708512766907,-0.03059755823147824,0.9536819206095613,-0.4790995486713163,0.8234052108364017,0.6338412795455647,0.576885312323927,0.5353235076097473,0.3986831747151709,0.468973779690527,1.0259262746094386,-0.16569805724280373,0.7774710373709127,0.9948563536842042,0.06448339478620123,0.1467711039869888,2
0.22379240361769617,-0.8335401440196649,1.1218729619448007,0.1272358516264188,-0.6064734163979801,0.362496156578161,1.0459544367327582,0.6951232966517839,-0.3221002832636129,-0.18735975065442667,-0.03506508901684938,-0.13463635830390677,0.8892785144388188,-0.4419290648140651,0.18927544040048105,0.3028053541370986,0.22560482563262846,0.0027051920731491685,0.1990742276916243,0
0.2129997042702761,-0.840541847252484,0.9834468193593099,0.6634103507850893,0.554954099107977,-0.12008877811895802,0.509940672472202,-0.8142289607618041,0.6096621421102653,0.6521293640493476,-0.23500367908892722,-0.4463295698344898,0.7491897614312611,0.606598036040737,0.6080045877530056,-0.5862382636583303,-0.0181859589717039,0.13532180489639278,0.6544441609721565,2
0.060483385604537546,-1.2888009051311597,-1.052775353715003,0.8948235707020962,-2.704491489052855,-0.4450659263204165,-2.266858806653888,1.2407404762872072,0.2574738054722826,0.10892148917838256,0.2254196055009592,0.03611288438218024,0.566556470835003,0.9525173321178605,0.8066910180926026,0.7774710373709127,0.4969526226184583,0.06448339478620123,-0.04783292762601404,1
1.5166028479540654,1.9417044434941169,-1.1750191971981436,0.9278823815222789,1.0925011410133847,0.6924876824703056,-0.974194699896509,0.7780338798337545,0.029689331186295916,0.09594949226118209,1.860100469184855,1.4183191432140891,-0.3621606331082642,0.13107427225731322,0.9284135755741197,0.8395271990610156,0.1783036727233457,0.22142148924034133,0.30500622633628977,1
-1.1399823736825248,-1.413651818768943,0.7975812200627976,0.28291330963314343,0.39856938235551753,-0.5301930452073927,-1.765743074730635,-1.3007907892224806,-0.5197471734975329,-0.6174372699234211,0.6074897778305888,0.21739704776493343,1.0064170256094904,1.0863320887062757,0.15032523316326596,0.7143889024579696,0.21907668587811263,-0.03537815070044339,-0.13040050893639385,0
0.055638267552613065,0.3541140297443817,-1.1198197645476027,0.6410268283668634,-0.0033123793607590414,-0.5771045747597262,-1.0363222521823146,0.6575808839016871,0.19444203352478062,0.08634850492157227,-0.5952188900942835,-0.26704906210415635,-2.004553145534897,-0.3537806355192979,0.689780727898786,0.20845266446002042,-0.8233536377731446,0.04598450453752426,0.2579029003436733,1
-0.8007190857344562,0.4814911119804948,0.9761487836915251,0.27478603123207207,0.19904041863532634,0.7239955424234821,0.5175475818300272,1.5437074122733212,0.4176716532628025,0.3345144605995912,-0.2715674299346262,-0.46290433910897494,-1.6204258642873448,-0.8865796603187496,0.383344090845702,0.5087449350112689,1.2613923050594786,0.0027051920731491685,-0.45691071727465377,1
0.09076873845596903,-0.5503823718615596,0.5551096558979524,0.4742078332179337,0.8976546201001895,0.6282676466717309,1.2381278368404445,-0.46526263579342947,0.6247071823889688,0.6488289913624463,-1.156692239504586,-1.209564272234228,-0.33569482388225946,0.10513356366332839,0.4733307613717652,0.18683366819512487,-0.20116004681057997,0.21217222893328358,0.5503008624918574,2
0.641608375665478,-1.2256978659811335,-0.8414616423354233,0.6148479262414656,-2.1186634206936215,0.6220405929793078,0.9541034300238052,-0.7735173252333403,-0.19686463854572858,-0.6524386616035912,0.15113746984565812,-0.05835983843708128,0.277301518564907,-0.768870121214133,0.7046066055122643,-2.068416834982683,-0.818970393495398,0.21217222893328358,0.07804361647342249,0
0.24584852478950997,-1.481572512467837,-1.5885528246081624,-0.6876054615774909,1.0189028378918163,0.6795521526554386,-1.5429704061080511,-1.5914775993764996,1.004695839164688,1.0804692661753894,0.8334999905471033,0.4128762648245811,-0.30834714024562176,-1.151445820469328,-0.518251578216725,0.6932177910411224,1.23894428868752,0.0027051920731491685,-0.0028696349306237797,3
1.3588794872779957,1.3744189388922599,0.3732997836939317,-2.872486581528417,0.9560940928749494,-2.585166581808895,-0.11869608645929805,1.0243400240166738,0.8938758863731315,0.896131467138389,0.7084951846359022,0.2625565431039499,-0.5504776352127883,-1.088199742267816,-2.6060445884200036,-0.8087136411240837,-1.3981897398051444,0.0027051920731491685,-0.8199493651744748,3
0.264766344563889,0.27558969333264977,-0.11306570389079172,0.6105261293469096,0.5374099131147664,-0.7615968253987533,0.6033946413881517,-0.5615918747368902,0.8422584269398031,0.765889404127613,-2.1390049639862294,-2.201418040749341,1.8290043489048826,1.25104224777152,0.47273569200855836,-0.1397555997616561,0.23135688335261065,0.20817953174755563,0.05639882408057536,2
-0.5147212359303791,0.07458829536470221,0.12042711668202224,0.5918182167239641,0.4590033979042882,-0.99670005859912,-0.08429926699041856,-1.240147198560283,-0.23941923634083478,-1.005930245165724,-1.6726712689200338,-1.4000133579667826,1.183917238250773,0.4857446800521118,0.5487821002457569,-0.4060616684193598,-0.159808174657677,0.17055241503320703,0.511153206183785,0
1.159883488327142,-0.0777389996021768,-0.46345109505835624,-1.6104492930686152,0.84875178389922,0.6809388654338796,-0.05718089708688697,0.04322367179254201,0.49305165688961733,0.5923406717420037,-0.3863354360661021,-0.21701136549104594,1.044008005244553,1.0491451782774808,-1.8794111869087968,0.5228986048921788,0.653031382836041,0.13532180489639278,0.6625264996463833,1
-0.4753186655980471,-0.346332765739903,0.9728860803357586,-0.9378359695681359,0.9151460270918704,0.16264043955499669,0.3876522763894544,-0.09648360980728092,0.5022798222694098,0.27136373671160147,-0.48265786394261934,-0.47031904155246584,-0.20456383075467166,-0.37599560947008764,-0.8772790083945131,-0.7539702907801275,0.10759013665195467,-0.17346398021314807,-0.22082393451578733,1
-1.280326397735552,0.3075421473335097,0.5448433473488364,0.1692680358990124,1.0259267135999348,0.2577534324120498,0.41722934250153365,0.4118844143933812,-3.119374672112732,-2.1835068909585336,-0.3336706472812403,-0.14720076831521037,1.0601885036365408,1.8415595348271547,-0.08983655331195718,0.47302416354095106,-0.3170316881267691,-0.26326603194885173,-0.17377005114863298,0
0.45182202041608704,-0.22742596175753013,0.44103503116763304,0.21280698741526063,-0.5337109841327434,1.0856891912770315,0.029860473374056784,1.5306342252421117,0.7157388536176083,0.7828940029212934,-1.4997182801757794,-1.7207590499131413,-0.5011021716531736,-0.9596388252147593,0.33049774439525553,0.41556419842087045,0.35193215297046715,0.0027051920731491685,-0.17105398228842303,2
-0.010688841289642741,-2.374182776325286,-1.3706594876426592,0.7527502605341183,-2.3202174391012034,-0.14166037523943772,-1.0970870293243862,-0.20259387201049908,0.1945166188745198,0.0878019355278266,1.3835069533884552,1.402694110723034,0.2089562888281578,0.5130486109272533,0.7102568303048813,0.8337744652858011,-0.41648962591546923,0.1778242091011124,-0.3751211488320466,1
-0.5999427584700574,-0.8698228391138491,-1.15123543036888,-3.1294692578904444,-1.0324589741280588,-1.1403949637990778,0.7573201241208153,-0.9676150893887653,0.7774453796165527,0.7717053333866267,0.12134592772575624,-0.21791704233207784,-0.012659628046419307,-0.29247183721802594,-3.0874471396219256,-2.3306543598209326,-1.2646924051731294,0.2261438207195554,0.4743769581643104,2
-0.082230574130652,0.3454290671241385,0.811902779963481,0.22334605313477768,0.4572210851756785,-0.6279440632993095,1.2870062422436317,0.44060650649778116,0.31595209731131657,0.44846638726130783,-1.0777925144878702,-0.8398457128720007,-2.290551879708212,-1.4250900243143416,0.3874654866006548,-2.799470982294213,-1.334153615924269,-0.14650732865330426,-0.6479919784335814,1
0.8260500571613681,-0.34295552143327845,-0.07659252014769166,0.13316472485070166,0.3932429698773132,1.086854484872021,0.9836613815782346,-0.2143525716713041,0.0014753771137344094,-0.03961486910957567,-1.018878949001719,-0.9323511875097144,-1.1447178910167144,0.578232784242454,0.06572921227168674,0.42107316026827873,0.7568365848320705,0.13954927438209141,0.19004052547790795,1
-0.2206619335925503,0.5156592694818254,-0.56554809376473,-0.5711718890223907,-3.428845114164107,-1.207020163391985,-0.6219826474361614,-1.0025331609352208,-1.6028862586934431,-2.413315145490688,-1.1878984436275366,-1.2359074614831427,-0.9838575169645193,-0.3580798022710289,-0.5152853644265939,-1.2539938216860607,-1.1130523419074327,0.04598450453752426,0.33667205342111084,0
0.38289581299220155,-0.8298481374057133,1.2780326900959174,-0.7247997333601457,0.6768193777305475,0.06380359191426817,-0.3035712161683808,0.06084262079869692,0.21525401964811894,0.08533282997403045,0.2372472881540066,0.21109093036275725,-2.448934303273807,-0.2600186494098041,-0.6834118535989272,0.6597856084678244,0.5366179099990308,0.22142148924034133,0.10551613347485204,1
0.5001192735932574,0.27656638384932986,0.47324606438098743,0.9955046807423825,0.4771943459001513,0.4409919988452737,0.43598287850708933,-0.30234290160371746,0.5197881351532703,0.5677464929609088,-1.5121105085562025,-1.6424919387416277,-0.03618547230500685,0.24992897184225202,0.9848919415713433,0.8337744652858011,-0.11117464245327732,0.1778242091011124,-0.4335228612148171,2
-2.217334870925687,-0.8621312811494043,-0.9080360233099763,1.1186523200947283,-1.1951462320628918,-2.0307999565111667,0.13253913994148495,0.8194797602593461,0.3178176998713367,-0.019565538064151653,1.0911140409423512,1.0088305536260946,-1.063883746524868,-0.22321835402092624,1.1530170176152,0.6597856084678244,-0.36714737095508976,0.22142148924034133,0.0021704845218433835,1
-0.9900692912120719,-0.3934325955172905,-0.49430677315314187,-1.9758772091421768,0.07384821094637055,-1.5463442093619844,0.1516519968010064,-1.4256284718294314,0.5292550000848926,0.545970954377063,-0.4991516427457053,-0.5823114052369112,-0.3055649468003222,1.588713019914902,-2.461230142719276,-0.715555305330163,-1.9939622940870978,-0.26326603194885173,-0.5873527577681862,2
0.06906276287547866,0.7129101441695568,-0.1539760070895335,0.7836418010255538,0.8254864594910987,0.44919452723399694,0.7871539276868473,-1.3532016630174426,0.59995585864084,0.5784281862556953,-1.415218685025278,-1.1900631399514197,0.21129510490644607,-0.30957087667421285,0.8272612684447695,-0.09770704325551079,0.46733177158436895,0.04598450453752426,1.1629157764183815,2
0.9400058738503736,-1.2967043052601712,0.7218042555932298,0.38282525495597985,-0.40689613085665605,-0.40761671649198167,1.187404305124189,0.9113106643861678,0.36962590374968496,0.33946384879387526,0.315947965119568,0.04780782766482415,-0.04414211333661115,-0.6251982808497988,0.46210449327171454,0.792964160291505,0.29119152786687075,0.20817953174755563,-0.2760628380831905,1
-0.32863154257867677,-0.005835242230125731,-0.13462684824531454,1.6376198541288858,0.2931960439580781,0.8930247476792836,-0.027774637007538478,0.7755071306067438,0.11842275475080878,0.040145340500456705,-1.875982379469351,-1.762868341933139,-1.5430510089163454,-0.05082232163461666,1.6571527621628772,0.47945630940118966,0.6121464486223221,0.21217222893328358,0.8945944977623542,1
-1.2527193498845008,-2.116320523234959,2.5679583454959243,0.787034361221168,0.9021155301934873,-0.6081070824949931,-0.5465050317856213,-0.14876660242629144,0.6587892741506923,0.669363200187669,2.9896508590490845,2.869279577933684,1.3325542677711848,1.099348764725998,0.677160652358669,0.7774710373709127,-0.33358324141509194,0.06448339478620123,-0.053448032682667505,2
-0.7300310496201244,0.6933559640255599,0.8190588674437859,0.49264674605445957,-2.963797612797015,-0.38810600913441157,1.0675136206302502,-1.4776992858792284,0.2760497840736371,0.16223734666877826,-0.39495104420979554,-0.8232627797634733,-0.26739917355041576,0.14046651981930472,0.4879222714645694,-1.893046039096145,-1.848265663382556,0.17055241503320703,0.14292330704286493,1
0.9979317176940047,1.0409559857224595,-0.57446521525525,0.9570869748895173,0.13647148422792488,-1.0231654528169705,1.059843620529917,1.5401850755146045,0.6027824815012545,0.5750356151591086,0.028192911983400883,-0.4538805190244205,0.9630678553167389,1.7997012114936188,0.7688245382397294,0.4549092861647701,-0.1586007993500477,-0.26326603194885173,-0.3982346783791725,2
0.1628908062473008,0.6946583103607948,1.696836546241506,0.3093212918735963,0.8014321316694933,-2.431009630909314,0.9364610128621341,0.12219187555184759,0.2099538153964062,0.05694551305569889,0.7533655504038391,1.1101071113287329,-0.0613788693058471,0.04050360428453779,0.3144549506424245,0.788823702626266,0.10665155020056162,0.20817953174755563,-0.2692246880797281,1
-1.2222807969199,1.6321882190097527,-0.3378927240340287,1.4569646514370072,0.2916030778404756,-1.93573517712667,0.14767043807370808,0.47006768060081366,-0.0849831418817061,-0.22747511158336933,0.8654220206666462,0.7968502010153172,-0.014720375421213253,-0.07187810670812184,1.4780798118682903,0.788823702626266,0.6042632670789043,0.20817953174755563,-0.15676843620726721,1
0.6277106496856625,0.4101973476997339,0.1538472173657471,0.5804820266284543,-1.1394188081757537,0.1800443855983953,0.9221912582635309,-0.3805553062004534,0.31394660029057175,0.4160556830519534,-1.4809788522033354,-1.3706149342884937,0.03913962828195604,-0.16331355459303587,0.6097143658796894,0.41104391540994417,-0.4472423906105186,0.2261438207195554,0.7265562038414637,1
-0.2339540798519957,-0.62930224536549,0.5463787957104957,0.4265859529914644,0.9045923568297353,0.8782688713784529,0.750626755771444,-0.12300930574098003,0.5416608584187783,0.5669646960400194,-0.9803493184667478,-1.060069623388194,0.5582418205242223,0.8533222103590233,0.332684027731994,-0.4672214157494255,-0.41281970086396025,0.13954927438209141,0.43557532632891144,2
0.6181952010627534,-1.8377074123974795,0.7318869960243672,0.1397897417799832,0.4741646192601587,0.41238709627665365,-1.7778678399651595,-1.0495878555898757,0.7411579225575802,0.7456607248145936,0.6387386371241022,0.782551761951421,-0.3198210571676271,-0.9404450370709461,0.2573397185788309,-3.4913196483199567,-1.6843457037102738,-0.14650732865330426,-0.46292973034082147,2
0.8693236803826261,-0.2587204789143826,0.8451823772916464,-0.3672415801536082,-1.2948655449502062,0.9203397327181573,0.9606253389176429,-0.3554001068263471,0.474443505720503,0.342393500853,-0.4426993822464545,-0.762852139628772,-1.4707936774191948,-0.06788195064502071,-0.3534060241001352,-0.3970757243126948,0.12461239199796953,0.16790577057074382,-0.17729832426320785,1
-1.4509760135016059,0.7561877347538276,1.0589215705739075,1.2886635011848482,0.28583252342505,1.086206863240768,0.9725947206917134,-0.11580304776399926,-3.119374672112732,-2.82608418754112,0.5059577198751901,0.08947066249329413,-0.1911697480398983,0.5301258787262563,1.255276519305825,0.5637590001994855,1.5786099070604285,0.13954927438209141,0.5731269415310187,0
-1.0573564866467744,1.12205469033234,1.264818507212668,-0.12735842478375528,0.8546876012412988,0.8613150412144317,-1.5585312896838948,1.489056349886955,0.1227335319615278,0.11954962495209329,0.74974734248904,0.18206895402501627,-0.38478936488186294,-0.013064107330677178,-0.11922368178965248,-0.40197649923553447,0.9185748779042204,0.04598450453752426,0.886840291419893,1
0.7986263046463091,0.5293508957342339,0.32121116630483126,0.02914514686783778,-0.4735583322881302,1.0792346398887498,0.6893252841077683,-0.9050472832529323,0.7796714154378399,0.7706045062900894,-1.011733811725698,-0.9923319223384192,0.001862857303905414,0.5150412528311022,-0.03273887432406603,0.8126203681419664,1.365855312979167,0.13532180489639278,0.8155057573880146,2
-0.010495542186252085,1.2258488424050091,-0.4639214675077981,-0.7340888298674486,1.0640241659164373,0.07897963357143396,-1.6431220839990253,0.6263876076546728,1.0155870418009139,1.0230544755315847,-0.27012547604656917,-0.05293829990435265,-0.7079031416238367,-1.1738950754463655,-0.5598804720858732,0.808201953372883,0.24794485373209788,0.22142148924034133,-0.7247426454436039,3
-2.034753411440884,0.14662431339003484,1.5379070973177162,0.5676388777149599,0.6875020810418965,0.2527020560562688,-2.077370886289824,0.5079865450379707,-0.09062183839040276,-0.25697978385110753,1.3096646541630206,0.8087224564280872,0.2547928430322112,-1.1998391132502675,0.6985285020657602,0.4426271371160856,-0.5918393252938322,0.0027051920731491685,-0.0797336853465436,1
-0.06134898852466984,0.5803724270459917,0.46318499976667915,-0.3526515244154476,-0.3387620641485693,0.19875138970895925,-0.9070636913799276,-1.0583624426246383,0.08490709555390165,0.1847511268544163,-1.4468942971199918,-1.4973421967180813,-0.07996683149953186,-0.22542803993449262,-0.31628158172207294,0.41104391540994417,-0.41423783147511417,0.2261438207195554,0.7519885532177776,1
0.4073802790966868,0.6435104320107468,1.0142924162267548,-0.27367240518666586,0.8145706824580068,1.1186129986079691,-0.031704207505056765,1.4837427054967778,-3.119374672112732,-3.7119846520818065,-0.4305622698170232,-0.3764344525106943,0.4908150183564302,0.06571494755282319,-0.27815791095354714,0.5701548322831017,-0.7431562271491007,0.22142148924034133,0.05170255935756726,0
-0.4220870162241702,-0.4436465221295948,-1.7347996259612382,-0.6035700647033397,-1.4996329623306175,0.7892535150570307,-0.9806212989535851,0.027018165922000265,-0.2828150186345316,-0.35351583053267865,0.3713850523364464,0.6039294680994426,-0.24328166717847752,0.367164307537587,-0.6623197116008069,0.8555238440051978,1.0911428565258467,0.22142148924034133,0.01878477494738086,0
-2.168772630293381,0.4081850776566145,0.7120629485912268,1.0544454280331301,0.35222737025452666,-0.0036531592990912457,1.1742950517255848,1.273225525127616,0.7540453086288608,0.7778832981747504,0.6929635161934704,0.9566433686999586,-0.36100455238941703,-0.7030534263875862,1.1308456154900133,-2.068416834982683,-0.8700149310808594,0.21217222893328358,-0.18726345843323514,2
-0.879049082092275,0.17902935809373713,-2.025575608019573,0.20804913311528614,-0.02812074952103776,0.34375255400056764,-0.12979164160271794,-1.5512381408990854,0.34964042215231594,0.35182206890558476,0.7463408606553675,0.9581722424990354,0.49695001750338463,0.36775454235862004,0.1708613484972307,-1.2037270306595735,-0.6445413189632824,0.13954927438209141,0.5462736285446443,1
0.17525008778200313,-0.21318410014805242,1.1979031215119544,-1.870016088969077,0.7931212547893809,1.1171824292192731,0.4288090667401855,-0.5170904279783683,0.15559982708470524,0.13081713522846475,-0.30164789314813834,0.03444851928758607,-0.44795230034759315,-0.60121509710394,-1.7565821605777254,0.792964160291505,0.8030438834213248,0.20817953174755563,-0.17987676816300327,1
0.23336504055654456,-1.3672788501360125,-1.6660249366445803,0.9493898792235015,-3.674824315817718,-0.7687211279136009,0.608693773686284,-1.9698962661520998,0.6425153468703023,0.6630910982749046,0.8073568071418836,0.5152208602851579,-0.34569422248721443,0.3888127223746521,0.924070721086501,-0.0776757181731731,-0.3278837769517753,0.17055241503320703,-0.49223321142495585,2
-0.6552262121580803,1.4161896876246995,0.1195481317475172,-0.6007145853365318,0.19434372846620343,-2.4003391262543703,-0.30222493688260776,1.061240180419913,-1.7244613653640943,-1.8430418833684707,0.143110006645444,0.35023761256131497,-2.2546760630558245,-0.19532219874582984,-0.5691587593887568,-0.5378925264900708,-1.740062852033859,0.21217222893328358,0.7088449312014564,0
-1.6276121170364894,-1.214117272957541,0.34052782155108835,0.9054431582246333,0.280423057775542,-0.4556526286809926,-2.117535542710972,0.6427578096265798,-3.119374672112732,-2.403977754861845,0.5913594803853031,0.3210446821309124,0.7077300481693212,0.28166897128135976,0.8904951324704015,-1.2037270306595735,-0.7205491155931399,0.13954927438209141,0.5275598790923823,0
2.7300411749080746,-0.6760697673999463,0.01596565464415526,-0.6249825257479497,0.8648846374663071,0.1767327658723003,0.43765542332100127,1.1817164850333266,0.506480579643444,0.3840044165326118,2.3016491880226537,2.853265194947922,-0.06389472896256895,-0.2720133308005596,-0.5817863548066093,-0.09770704325551079,0.16298009688566287,0.04598450453752426,1.1336861910265728,1
-0.4836697198568032,-0.8852885979149709,0.22352066184499975,1.0568454451785474,-1.6857919280985951,0.299828837719382,-0.3878125970556521,-1.0048027500296959,-3.119374672112732,-2.5400223870521295,-0.7009426902457039,-0.6041780988299702,-0.40487874796786727,-1.1161016121405594,1.1668223305417398,-2.2624206221147576,-1.4419927401702202,-0.14650732865330426,-0.8295707429431526,0
1.0501896686303764,-0.07419871595773675,0.08323630671349434,-0.3300538729878239,0.8987979136907037,-0.902175188226017,0.31073235759061946,1.328461113691627,0.39975830481379043,0.2100734258524994,-0.7837423147302788,-0.449139001134674,-0.8609698813421736,-1.552163843570863,-0.12790083874123565,0.07635316105678128,0.18827159960543877,0.18936567158268738,-0.492184863842649,1
-0.06801647911988885,-1.2480355947500597,0.6176749850935545,-0.06972958731433339,-0.8520513770930652,0.6046372482271339,1.3443205514983956,-1.7288442936629127,0.22588739128052543,0.37182089129706836,-0.19664150851763537,-0.02469282384077073,0.44860778439809695,0.6777845837169966,-0.15878475796300726,0.5396543961729438,1.1800721388106366,0.2261438207195554,0.9501093482914035,1
-1.4166190820615314,-0.2629944059942383,-1.3445198104313427,-0.6199398776445578,1.0223186362144263,-0.17958577429755607,1.3175139293741787,-0.6247515878844632,0.12073269066029581,0.1589538670286509,0.524947660348829,0.07262365576717437,-0.1828014964765348,-1.664765031691938,-0.3891849265001061,0.3385882982044202,-0.10445638759073622,0.12643207590781844,0.046680682912417185,1
-2.4906645172337383,-1.5727820822466063,0.10100671187907602,-0.02947724104129921,0.6697868944156592,1.1593815894969188,1.0598437992315697,0.3072911155489611,-0.37845330362090845,-0.8619232152182142,1.4392363841223481,1.2894135224718937,-2.369790902001151,-0.7476334687406274,0.07041751129002526,0.758649016841343,1.15294322243496,0.21217222893328358,0.7594073956186047,0
-2.540788503452864,1.0082675768600287,0.2675744865539005,1.228147836225449,0.42163196753600335,-2.702622904475076,-0.0718695812529585,-0.47557524050897754,0.008780769325846285,0.10181461272351715,1.1291895984695413,1.3385652363836524,1.3741399588383905,0.39940984180033046,1.2061297023073478,-0.49936102624380513,-2.665984092021799,0.13954927438209141,0.5738724347985303,1
1.2768280862280228,-0.7870243917704751,0.2599561555457462,1.3947231901382913,-0.02224261059730385,-1.2299029344509458,0.7519603508756489,1.3696128480019583,0.41437383959413865,0.31979330180326093,0.050728669329992676,0.02748009170371785,0.6197882904615442,0.7259632242233057,1.3450159661738428,0.7281510606155629,0.5905675225380204,-0.03537815070044339,0.1219189464354636,1
-1.3637151864452586,-1.1755785470294444,0.5335771546235102,0.47691870141044473,-0.3565015399821217,0.7870833525578306,0.626835281734187,-0.19309276234257094,0.2101953930327194,0.33358865334092996,0.4164940020438525,-0.029890636956731914,0.5284869635762048,-1.3878683336603144,0.6278360063342665,0.438571888807939,-0.5819408687150605,0.12643207590781844,-0.034349726885892655,1
-0.11561406735709726,0.002899767250794981,1.0903090648496163,-0.2823980606053904,0.700875760656785,0.7993429179380077,1.2154651105846643,1.4621710212510375,0.26042319144447845,0.183191519767366,-0.5569943968031901,-0.2052655275127192,-1.1131644659692248,-1.176558329152275,-0.12528395514858562,0.6932177910411224,1.2431545892270488,0.0027051920731491685,0.058568997029795386,1
-1.016259512376733,-0.05822643472486697,-0.9591895731346882,0.36397724649516566,0.42465068083852375,0.6965868482104581,-1.8377199033337006,-1.9755464550799613,0.7413877650824251,0.7426576895516475,-0.20108536768977525,-0.5272187703727513,-0.5304958253777496,-0.9866417156820303,0.48048623752431063,0.7469279206532647,0.917671821817347,0.0027051920731491685,-0.6877748030998428,2
1.4167068991635041,-0.31826318309118834,0.6947366091171058,-1.2090187032922335,-0.7406547710269632,0.5934687989792102,-0.9854408302644303,-0.9553295201425135,-0.6170466820731559,-0.5437837851052494,0.2044323351973691,0.3160567351877577,-2.017876989993639,-1.5220141562682523,-0.9621452504395062,0.22921730396803108,0.9093549278353006,0.12643207590781844,-0.39381109197832037,0
0.2860223486753071,0.9218699166158456,-0.9912734771365747,0.9673730180025668,0.4734197249338004,-1.9956247274785577,-0.7566038303669393,-0.48783382440099593,0.06033936775083143,0.002475992701342376,-0.25731307487688304,-0.4740193066456545,0.45506054384761,0.6810705675812746,0.9116812748722724,0.2796536735779828,1.0455671865932146,0.06448339478620123,0.10910474272103234,1
-1.9955088102725569,0.14755726675974457,-2.3619290129916597,-2.3662561866937604,-0.05560878764124776,-0.24004487215485928,-1.2877190393820372,-1.306762242647306,-1.9748327269978239,-2.450789133708394,1.6176502570905777,1.330176865693027,-1.1494127608268296,-0.10859632886261739,-2.3695297013529295,-0.7753190826201937,0.5753490946621327,0.22142148924034133,0.24664894559199657,0
1.2298433667710655,0.9164512036039351,0.042146105892546075,0.056343184111432354,-0.47003612037641546,-0.05308760996789232,-1.6515718696195698,-1.9717788212226595,0.35875750009453844,0.09527028930715903,-0.01843820884674934,-0.07038755148949909,-1.0243557972675315,1.1706670254697995,-0.10193121948492191,-0.16216387933510668,-1.2985088351449965,-0.5610715521332668,-0.9068688476200727,1
-1.2882439569637498,2.3378163746404415,-2.7927552695453675,-0.8544446514252856,0.7032913102125679,0.010996665686206152,0.6382370701095155,-0.7353839425188041,0.45954017373463213,0.34615222509317733,2.8312234655309703,2.185145528454478,-2.3344179078975684,-0.032254330525314304,-0.8510345402631805,0.1696899629840818,0.1002285705162124,0.21217222893328358,0.9519148883214643,1
0.7888935650366331,-0.736345954545969,-1.4080850849582616,0.7999774787472202,0.8549513963617483,0.6412231529688517,-1.3523197376789762,0.8582172116749041,0.23443264772868908,0.020857512815360867,0.33526277103546526,0.1639811562226064,-0.7885376498648887,-0.14722802603114474,0.8276204892346878,-0.99749742907988,0.4202935736832354,0.2261438207195554,0.6153293017033137,1
-0.9725593758822904,-0.9621111171564102,0.6985082465132775,-0.8025972862603603,-0.1505617015301516,-0.08915305768761714,-0.8909035909162106,0.6978262523623754,-2.2842298549557887,-3.7119846520818065,0.028779179696743637,-0.4753453499310004,0.6821922850015288,-0.05068779193678044,-0.7954795694183981,-0.01423545750623559,-1.0473216496216697,0.04598450453752426,-0.12016522580605783,0
-2.066536469544834,-0.5665043658095792,-0.12316636376561296,1.6893152537126543,0.8109460995618697,0.35399973828453457,-1.092614011218839,0.14538586355101066,0.9297850886079583,0.9354564085155739,0.5527735989386381,0.8443312093764711,1.418995747013241,-0.2309206133509111,1.7224205830530874,-0.02483153348336841,-0.8557538544176846,0.21217222893328358,0.5804618476841708,3
0.6939310740056904,-1.6045870866992107,-1.0140294310707014,-0.7771115122505934,-2.0449451119988455,1.0144122453854678,-0.36082810384711894,0.37651414656967,0.6593267385175764,0.6738485320896851,0.6480525741843984,0.481047372183729,-0.763771361804973,-1.1164723864258577,-0.6089920339027287,0.41556419842087045,0.8417091549534005,0.0027051920731491685,-0.10436827960800371,2
-1.7702164831601614,-0.8780737392033783,0.33430253931586407,0.5359959155174988,0.7893313039826637,-0.7258916006537474,0.10776257948870543,0.7627778071303867,-0.43646004323460325,-0.4174245425523322,0.47118524901644726,0.4988143088376862,-0.4136934677191085,0.26864664436320723,0.517130102907861,-0.3029935468993665,-0.22238668289753907,0.22142148924034133,0.20727484432648746,0
-1.8933266027971827,1.422640125530449,-0.3720369358738202,-1.7480522086369366,-1.8738726473969651,-0.32780317753265914,1.1098919854175235,-0.010376965974176774,0.037290907855504915,0.036056634281303214,1.0492290552224608,0.6461220155359958,-1.9810804767545538,-1.3295565910050946,-1.4993423130643866,-3.4913196483199567,-1.7191659213339983,-0.14650732865330426,-0.7803511504764796,1
-1.0247611313166602,-0.696773771899013,1.6587246957843214,0.7094076449305121,0.8493322939587395,-0.2867582017575159,1.093769753801415,-0.7103028331319985,0.5539185380541424,0.579727238057818,1.0573940219210056,1.0298826855925738,0.8234468458067971,-0.6813002449382687,0.7892739120941906,-4.217210860113995,-3.7940735014206672,0.21217222893328358,0.1586373191016993,2
0.5808342469561523,-0.9792033743149449,0.4721876184029454,1.2002047046237296,-0.7898961266681562,0.8044989109152133,-0.46986167562983816,0.7089357074300265,0.5061689416250872,0.6993035136747467,-0.47354806985440856,-0.44714986409189245,0.15061883730581388,0.11965469548545626,1.2038716081559382,0.7837169208593271,-0.05545911365890772,0.07709102150195739,-1.1608599433220517,1
0.052103577303546866,1.2729560806167484,-0.3703527998409639,0.984941893959121,-1.7419129572327707,1.0463479119723542,0.42681331251899973,0.5300705890785753,0.1396293008327052,0.12195673034862069,-0.24079277021194803,0.047721001651307424,-0.608963979284336,-0.4288426427653129,1.0383762528498675,0.5970472539038042,1.0709591803830445,0.04598450453752426,0.5928796925893635,1
-0.039664743073542064,-0.40873167262506793,0.2825084361583181,-0.6151537438054323,-1.0538246761442638,1.1595661795702428,-0.8412648352223766,-1.058104052515156,-0.4350593342988996,-0.34725243876232964,-1.6463693022224526,-1.4895318880480466,0.12219771902237705,0.8141979605580706,-0.7531519573671768,0.7594953638653548,-1.5056108112278788,0.17055241503320703,0.8430942893958452,0
-0.49214946580534547,0.4782107023573683,0.7844995139672153,-0.2775134836102727,0.43799322264433016,-0.30491828891162087,-0.7165359355266517,1.5127761152711858,0.7588638839299174,0.8878739583035365,-0.8064684860374588,-0.9034860515378119,-0.057228082238254,0.158812131656993,-0.29558101116775404,-0.4060616684193598,-1.587712055854312,0.17055241503320703,0.37891943960390695,2
-1.2479673836532599,-0.04478762063238961,0.9244818209843593,-0.5009497704839668,0.10069947605424748,0.9602467936108753,-1.9611612330673083,-1.2158442037837625,0.7467184416606767,0.7908170919385726,-0.018290260185727773,-0.19360677703385343,-0.2674046542993525,-1.036493363876347,-0.3533488816914433,-0.19492641326663637,-0.22174217937088214,0.22142148924034133,-0.6913856838342991,2
-0.19303327828912512,0.7716798862999662,0.07628779384101664,-0.0013274389666190615,0.43302175938504267,0.13224724396175297,-1.715505341464527,0.511465213160032,-0.06019637688055731,-0.024506956847260862,-1.2834688749260164,-1.0556923743134257,-0.24081644233933508,0.0032779125975106334,0.005744704401370549,-0.2010435215141817,-1.003182317036079,0.17055241503320703,-0.5740805129651672,1
0.6146636212023565,1.124239585643143,-1.4352034171452845,0.04615049028441144,-2.656324618285767,-0.174251495377027,-0.2175067799461385,0.031016227084628218,-3.119374672112732,-2.200791290013956,0.5038084095774104,0.20235579452652308,-0.6250086865646166,-0.6546616708459695,0.1338935748014064,0.8489124445039224,-0.5457019409969804,0.20817953174755563,-0.31070836555229764,0
0.42574051142270486,-0.747796918996186,0.10597905009047627,-0.17219477981085826,0.8632280925494441,0.35923121182562323,-1.0441372329682999,0.39855013008818313,0.7450423123331621,0.8703161993685716,-1.0411999704782526,-0.8437407433110259,-1.2095534145673985,-0.9931328151302341,-0.040166673898765944,0.5894746534036559,1.1872750270221633,0.2261438207195554,0.9460791164644503,2
0.8452686826764326,-0.0026143504661145208,0.3341900931036029,-0.27265230091079196,0.5406774145448185,-0.13713626619685426,-0.1823551833821977,1.3617979656647639,0.6242547388991685,0.6124085129320913,-1.1138953342320812,-0.890431148764456,-1.872584890092519,-0.09149729312829308,-0.2547966652662681,-0.9380424552187991,0.5835344911957128,0.04598450453752426,0.5999340716481972,2
-1.9175994818137387,-1.3189769710625188,0.19223507940835555,0.9993339765110092,0.15226969554778716,1.0274343581599947,0.5994339636893841,-1.6186372182920412,-0.675776344552997,-0.27305153488482703,0.8716295928997738,0.6745213259260373,0.13927678613820843,0.7727898937192962,0.9346477592781375,0.682018186686976,1.4654711222924217,0.13367171084075802,1.1731691806567872,0
0.07305691836541847,0.9591223416951201,-0.15813861745005775,0.21722016255552537,0.25758575351910973,-1.1636854475766554,0.7438206108305728,-0.6637765710575102,0.10296410870910438,0.05370654267459338,-0.9304542828221802,-0.6344475589574063,1.100763734914713,0.9648081445558688,0.09873941583785055,0.3890404122900337,0.2059060601620441,0.13532180489639278,1.055777039447253,1
-1.1160659938810054,1.1991915657711276,0.3873566689114834,-0.06304636264131493,0.6506908551005101,-2.516011781228309,0.7911212786810169,0.06890586357132648,-2.241273117661981,-0.9564703334894116,0.17790392303549832,-0.11016296216897604,-0.10032422905642942,-1.2891571338841807,0.09846364371888511,-1.4467394482536287,-2.362222986426208,0.12643207590781844,-0.8179239849924033,0
0.6351959426527596,0.5496163090984695,1.200006395210093,-0.8417029171782346,0.7243700960748063,-2.54120168618653,-1.0069478285570912,-1.6429707241283413,0.6155290647539018,0.5694072616857139,-0.05587150700734697,0.03910534388256904,-1.0305099250651797,0.6378372334186194,-0.9588998195447924,-0.8378224804679701,-1.6023829642605953,0.17055241503320703,0.5741822580705377,2
0.2361644731264632,-0.33306748288082716,-1.5879143187296283,-0.09189797792690048,-0.2056923124411561,0.9849666791728321,1.1574494764643817,-0.4062113610311608,0.4462364681698078,0.39944477682920365,0.0809272741409273,0.4120218650227066,-1.0340573760224885,-1.0522504307205238,0.04449821389360813,-0.07173404286709868,-0.24120393792406286,0.18936567158268738,-1.161901486729644,1
-0.529763727408376,-0.6543005148651198,-0.6493945309138487,0.4353536640478684,0.6904235562116955,1.1711802383968595,0.27898755636122197,0.1744562032410671,0.2400987408428727,0.0493267554590714,-0.5786784292026871,-1.0136363673076663,0.6363065099972521,0.3592155624826157,0.4040203226413805,0.8126203681419664,1.4431761886472148,0.13532180489639278,0.7063672241642202,1
0.884617219227698,-1.0939881868954504,1.7571786209056113,-1.13565999413409,1.028551127020359,0.4129389305833796,0.590787788829892,0.20718206564714417,-0.17956000096292699,-0.3044507448401948,1.314256962060532,1.236512788449475,0.7610445696611107,0.7288586937574294,-1.2881487214686236,-2.637064926455926,-2.863465322486082,0.13532180489639278,0.21594155888002048,0
0.9562942000323176,-0.4518462422722801,-2.5528291052028,0.708547931598585,0.8045158738622749,0.6972691688693421,1.0707004769853588,-0.9865949494868169,-0.7199448962421067,-0.9383022051059329,1.3117470939372298,1.5253478172525814,0.12698165813467313,-0.5634042463777338,0.7772659931202719,-1.3408446081210919,-0.37414146901741147,0.22142148924034133,-0.5506877799105768,0
-1.213031513633238,0.04969464177731546,0.7432418572493364,-0.03926075123563661,-0.8259667820158885,0.016630397935418723,1.240344236101468,0.2810885496099994,0.27829624694630184,0.3458846103344934,-0.2616145938208265,-0.24427744646634666,-0.270200857184349,0.1871207512499931,-0.05723406937805002,0.18683366819512487,0.8972325549477905,0.21217222893328358,0.6451057765178622,1
-1.1606807590611719,-0.016654950410114194,0.9440143123599399,0.07241531685383616,0.46292843802977135,0.8441305688169704,0.7455083545331919,1.3231229855470314,0.6601762937513127,0.6800371403990094,-0.08016745415485556,-0.32133595383808067,-1.687227850222194,0.617574765374285,-0.0025608885833008107,0.3877650734118634,0.6649570227489464,-0.5610715521332668,-0.628716980484024,2
0.27285690496466397,-0.03180185750326825,-1.6530085384146955,1.5046345556620957,-1.2339656309424643,-0.8069006577502567,0.4722787114918155,-0.6579142119330416,0.09455551394774935,-0.5938484070938003,0.08168488038327495,0.49820695876901927,1.2183508515046788,1.0024195225458374,1.4316623027257442,0.7143889024579696,0.2110699592054207,-0.03537815070044339,-0.10019051404785174,1
0.7476524657979599,-0.7678617410903416,-1.1044798203093995,0.42623120326171177,0.07228171492781556,-0.11122589404390107,0.934286801837719,0.9470515567964042,0.35907662031406057,0.5442775874037759,0.042712035373080395,-0.2912422750447554,1.278448600306965,-0.42712628693702104,0.48410079699969644,0.7366528842621026,0.32643369627678454,0.20817953174755563,-0.4182466715292397,1
1.0832792135289395,-0.8184741022362035,-1.5708936637041209,0.5709204837799223,-0.6528926861388286,-1.7240122237592046,1.0266283952257227,-0.046812587451880196,0.2747497094628428,0.08201610163812102,0.7455224918890923,0.3891793884789919,-0.4848276857570863,-0.28171188627440286,0.6126151916463064,-0.09770704325551079,-1.1174265026684156,0.04598450453752426,0.8613271969340064,1
0.802381058187068,-0.05276153834223534,-0.28971760591416035,0.9603993226168519,0.17215750916004305,-2.500554781659462,-0.1732974429320855,-1.7786465354904402,-0.04800249090812638,-0.04484030996027864,-1.1221273370117373,-0.9841081691247051,0.688408838333161,0.7528395412940391,0.8967532337757576,0.682018186686976,-0.07271514868577299,0.13367171084075802,1.0611378674940564,1
-0.5079675083578905,-1.6774819205008804,-3.852355866144551,0.23606433815345024,-0.6752382642659255,-2.2354524006527687,1.0410986905606028,-0.6055988039393125,-1.781634318317052,-1.641806993761668,2.4853675371053314,2.612017691706047,0.883835096665728,-0.8513897170728996,0.3418278350927149,-0.3614943040031104,-0.31561467291270495,-0.14650732865330426,-0.6866689307084166,0
0.6613145876155572,0.5375227067432111,1.3737990506405047,0.29750136830356866,-0.31768303302083345,0.7395185548829752,1.0008998576786567,-0.7576493043944134,-3.119374672112732,-2.1231033393748273,0.24902372801805758,0.4201719715057953,-0.23018511809622028,0.7186426734670943,0.21657725042038461,-0.08636265991114664,0.01685693220078609,0.13532180489639278,1.029280719123122,0
0.9032007526060009,0.48753861194043246,-1.0759278439807016,0.06550736381397254,0.37354131322047807,1.1394404919913277,-0.06994344143301144,-1.02953031365775,0.16243319184992955,-0.04511745694497268,-0.12831217021391247,-0.3366316004558246,-0.44376827172256855,0.45446047926053634,0.013146082267503242,0.6668454491558821,-1.2195865198800144,0.17055241503320703,0.5821563358827357,1
1.5050156876093008,-1.712953268330007,-1.095891261486545,-0.2883324820713832,0.4062682654090597,0.8175883442137097,0.5971497239929145,-1.1286553587786168,0.10711086050081275,-0.19438753918169022,1.3797960152567719,0.6238610747522761,0.6318680379400137,0.2599094432344618,-0.321585613814839,-0.5837823446976717,0.8166193122230604,0.04598450453752426,0.8697628204114364,1
-1.5870249175055546,-0.04852840310965003,1.006101283560561,-1.8787524261497714,-0.48549803769404615,0.06902625232635688,0.4613605298458708,-1.5077832051389868,-0.1392092036054205,-0.5600664108660772,0.38005797535516284,0.2689808512454989,-0.8320878100579894,0.272707886728252,-1.9658729557880168,0.5766932063602481,0.4644761979230992,0.17055241503320703,-0.3977040787071054,0
0.3826638869619951,-0.3456989579072494,-1.2453540296508574,0.9027878214487781,0.7425625687091151,0.16404417189462775,-0.022128410681537078,1.0994385241183215,-3.119374672112732,-0.8186726193242958,-0.2843288946675208,-0.07397354087585262,1.3347263789138206,-0.1386323421278415,0.9296135339076559,0.029535704066448194,-0.2046113573906181,0.16790577057074382,-0.17059354767423843,0
1.6673125228866728,0.8296698645354241,-0.5543654348883964,1.9918483927081143,0.2651964498657595,0.85527793538071,-0.3762072501438499,0.21034577755558628,0.9419802586508309,1.0583198053246468,0.7229618710198239,0.8231622183912847,0.8118449246507968,-0.13761378182676254,2.0173782892792143,-0.7359735323598744,-1.1370697681634834,0.04598450453752426,0.7611651317598483,3
-0.289933198290371,0.7512221378087682,0.04584665384256636,-0.16521505846321552,0.5175489444668122,-0.8933881404514298,-0.7629105666961736,0.02443446692738383,0.5740575910440346,0.508105535095494,-1.2570755254730315,-1.102338805242331,0.7306830150882934,0.6827552566634734,-0.25891036045112614,-0.13706644595321266,0.21143226874836626,-0.03537815070044339,0.04318901949023028,2
-0.866292105680133,-1.6430774870257943,-0.1464137511687319,1.1042821874132314,1.0300104188948072,0.5612023872338744,-0.1853110020984356,0.08896945705482057,0.8315286930871563,0.8402380643594921,0.4234017104666194,0.5323183282501233,1.3254129155232006,0.4420270031733546,1.0761817288288862,0.07385783107913703,0.09362255655036364,0.20817953174755563,-0.11664613579068138,2
-0.5741838558559439,-0.5398703291284846,-0.7106215076136301,0.47658563300795165,0.8400407278506348,0.11137384465611479,0.8302032118172742,1.520718076227861,0.20382373603224152,-0.07441673348690284,-0.5903079344193689,-0.961985001572968,-0.25752962882726044,1.2985824072104069,0.3247891341763585,-0.21354171015356668,-0.38022987683853815,0.20817953174755563,-0.862311123562986,1
0.21223412704482394,0.2799425725382012,-0.1516654188945839,-0.1226638403336583,-1.1885578547472049,0.49239813084213624,0.9407166223281969,-1.0809338202301328,-0.3115959916246817,-0.5064943034145198,-2.136873685066513,-2.1147914603321274,0.10631869050035554,0.7008763318437171,-0.21737819615208806,0.271381036894206,-1.3979586436074818,0.2048670627167452,-0.3518980887452962,0
0.3304535270793294,-0.11477093830618154,0.8074731567854715,-0.3088886459513217,0.7239334083559635,-1.778280872097164,-1.5740813641846012,-1.316113628612449,0.18075809133378937,-0.07494070553495355,-1.0579509684109858,-0.8501180279051036,-0.7007959533825963,0.06763460787935949,-0.31412354822605826,-0.8391137217203909,-0.056804219608077265,0.1778242091011124,-0.5129859849390526,1
0.4847117943676017,0.3257692268911131,-1.466584525010729,1.1627883917873079,0.09409976545733517,-0.10348954094128339,-1.16808817415053,1.0565062240290133,0.14837212520737275,0.33723675124412406,-0.056548656695245544,0.24632372597313457,0.50173547970331,1.4508061237876198,1.0293220198523763,0.11661816237856445,-0.35578862361551994,0.08739288530834581,-0.5775451640689099,1
0.2330664985117663,0.5988455509563118,0.3130019435739947,-1.0634608298388077,0.6643006305142293,0.5657103075565997,-1.7537603155244983,-1.3230245710226867,0.242303916305941,0.18013945612286736,-1.5723105982222643,-1.4541518465531738,-1.663642968684458,-0.40307918850511376,-0.9976232176738451,0.20845266446002042,-0.5631987385950641,0.04598450453752426,0.30941665160535237,1
0.5055120428136756,-0.7807730994439304,0.051581215229721165,0.32851182090782605,-2.0705957348288617,1.0840996290127844,1.1728019926519748,-0.5633762680070392,0.7867988446885779,0.8877729575156561,-0.9334398407408484,-0.7851957581914912,0.8581234057197559,0.22138653287933222,0.3120404443567747,0.40804498552653107,0.34586125858292655,-0.10644390244678745,0.48626156379337787,2
1.2940483604446817,0.801014840195552,0.15992471360504615,-0.8603602777132218,-0.3695914693458062,0.19321673180784696,1.1964601310869738,1.2863856518220451,0.6530361286413443,0.543408907523402,-0.025691807002378827,0.06322975643138205,0.3013175320471057,-0.5855534429357968,-0.7672674015216224,-0.35245322420811814,1.0206071903196736,0.21217222893328358,-0.07741198910167876,2
-0.7711930276092693,1.1593545254316109,0.6989667900950641,0.707997098128119,0.23833234994577251,-0.18102061149283233,-0.03265177043853082,0.8950724559184046,0.970026942887441,1.162819786388855,0.04791057432529357,-0.19604008998442857,0.6469986078196702,-0.18706149562586047,0.7396614088877959,0.06068683345929174,0.2618495647325326,0.1778242091011124,-0.5543363781076076,3
-0.852992926400987,-1.2005062645218678,-0.49273255201813676,0.56148866575911,0.4755942935002265,0.20000092769584707,1.067662964315159,-1.3345024551306353,0.773726204955383,0.9446227034579863,0.08493847349515828,-0.09662826883369206,1.0208866682727296,-0.5958341551198184,0.6352602792518798,0.6750164772014122,0.6180794756087086,0.2261438207195554,0.7745718791792912,2
0.22018821400658875,0.4829522528588583,-0.4550541898780218,0.759325499519954,-1.176298948349577,-0.07253724729943949,0.7881977337152832,1.0953679948927402,0.5012672451210148,0.5752082157469295,-1.4457234966368433,-1.4556205987863369,-0.0934439370256576,0.8314544974607132,0.6804623582978016,0.7594953638653548,-0.20139446075949974,0.17055241503320703,0.9460036766657339,1
0.1863626538574238,0.16596717781966444,-1.0018217482280725,-0.9668923009629459,0.1009064780499026,0.24619724325204723,0.9035164045341629,1.3319865700589757,0.6622032458536206,0.6251260547833071,-0.8045552274652061,-0.45666640101422173,-0.15391053907280308,0.8045881989097724,-1.124479284559028,0.5228986048921788,1.3681224950277153,0.13532180489639278,0.7703730670202057,2
-0.7457570253951726,-0.23152209881069907,0.38836401633234935,0.7522644505203273,0.9393997515558882,0.7444562906933816,0.751012745066241,-1.3941822901813894,-0.9812658917813367,-1.1425490938175469,-1.0476929867105345,-0.9845910491516897,0.6797844293760565,0.31505944241080847,0.7315791911228268,-0.5837823446976717,0.8465126875915818,0.04598450453752426,0.8264203455565791,0
0.11505535218813663,-0.9522640519965548,1.4673510140480583,-1.0345902514896206,0.859845435123365,0.29350240911917813,-0.3399837108645942,-0.8188842692540995,0.045318890082315495,-0.27327726238516753,0.5802444142575629,0.6223537767535294,0.8847192973654715,-1.1354971893023003,-0.853387726269157,0.6735848111820266,0.33641772548526333,0.12643207590781844,-0.7055245868456322,1
-1.1646388371436527,1.2214491598919481,1.399408136397354,-0.7445389221056105,-0.6094351912943755,0.6161639118556275,-2.286680412917297,-0.9479966326634663,0.2352429946632676,0.19150638676596754,1.0536532064175093,0.4757173292446222,0.4094791982457144,0.3991439337334217,-0.8135160573723181,0.4426432603018848,1.1481781321272566,0.07709102150195739,0.5299446070627711,1
-0.9265871300752794,0.1343125599674544,0.42448107014000425,-0.17277750699175407,0.3651323123150615,-1.2566358817939791,0.8185934827641663,0.31992837590051365,-1.1778734411931824,-0.718937634796374,-0.8889660042712942,-0.6834641420081128,0.397087411473602,0.7809681483115266,-0.28216944660642185,0.6166182587669343,0.4371237198533882,0.20817953174755563,0.3130388501995638,0
0.12056841085888959,0.7798817169718406,1.0974255867536353,-2.140463853571034,0.1224316432821204,0.89112067415878,1.228736308626717,1.1165799635185667,-0.23035151312691765,-0.6904855508037777,-0.2377473830713532,-0.18931868495059234,-0.36204140127212914,-0.9751070178140514,-1.9395256789447526,0.5894746534036559,1.23839505692152,0.2261438207195554,0.9627074076531853,0
-1.0909049141931653,-0.11123057333817728,-2.4717469176473545,-0.04032948830294772,0.35246674929652294,0.8880650299407735,1.1361389473438417,1.524048501820797,-0.9627794181607887,-0.6621901041901255,1.2421308704724503,1.4437756240600137,-0.6476329477100486,0.25998059557367564,-0.06833166322814853,-0.5334589870227,0.18471362057096072,0.16790577057074382,-0.0887314963262684,0
0.2165139972217083,-0.8589910812236468,1.162039960179954,-0.7469143807728464,-0.3622260385261808,-1.3377046078440331,1.2996459334272936,1.0380392862591388,0.9998707779842325,1.0455192224443566,0.0456298830157378,-0.045126015613569284,-1.5865607301613844,-1.40286436817995,-0.54192592660748,0.3155413411246545,-1.1274067625171222,-0.07667022544555524,-0.28649805810861645,3
-0.2762408441454383,-0.3306943194115981,-2.463415653298344,0.6389776206123363,0.6114154330700352,0.45204574533820924,0.2712932435214922,-1.4281486478396659,0.5643437779837874,0.47514089652032576,1.000121009521023,1.4352848161336897,0.07203725107808025,-0.014634168668267904,0.6525670601934013,-0.40197649923553447,0.3747124237840574,0.04598450453752426,0.8732526174336559,2
2.2368743256840493,0.9976654713744424,-2.61509869559452,0.659157012089995,-0.21064464314072812,0.31414671618579976,-0.07398941532123617,1.2294630090764067,-0.6305439714155393,-0.43769915390472913,2.543178911871977,1.9332789525530494,-1.2857308594558932,0.6197061649702745,0.6020994664923602,0.3877650734118634,0.7784839338408263,-0.5610715521332668,-0.6292380112920857,0
1.7548223874097506,0.7146635836256175,-1.3486885223948948,0.1925894835793849,0.4028727471994081,-1.5711442187543436,-0.8150497513251962,0.8643235835259796,-0.16613208075650515,-0.07700277928134794,1.2017069887549638,0.9974078641893539,0.25456690960141715,0.0754660755326445,0.19234193229019342,0.5491058277502896,-0.10615860713877916,0.21217222893328358,0.4370142867448467,0
0.9896219207147978,0.35948116777872374,-0.10098747561034364,0.5802082258349438,1.0833330810819874,1.0277964998595217,0.3269122806748242,0.2915756201476961,0.035506761019716296,0.19065304889859633,-0.8406447374735015,-0.5785102904237805,-1.1815832246769662,-0.3463845464444395,0.6285602804706828,0.13825077232250096,0.4774464988899112,0.13954927438209141,0.5757260660001245,1
-0.5199316796995603,-1.1416309032420593,0.5103840769960305,0.6256999807382257,-1.1092128594533768,-0.18953723956118254,-0.06755520200443117,-1.4966165940116118,0.6504465961964594,0.6433696743056012,-0.23216771071338024,-0.18732935700656478,0.10656178379250364,-0.9875796936245478,0.7356609908961801,-2.932933147135017,-0.6401952738937897,0.0027051920731491685,-0.5439829899168018,2
-0.25092693422195483,-0.8288865254229577,-0.794564433081669,0.17208379555315306,0.37702105606270714,1.1382650275247213,0.6709853534022617,-1.8089135368094793,-3.119374672112732,-3.7119846520818065,-0.4145391651355133,-0.7010214724515872,-0.13567527922808276,0.2267376430562173,0.15242394378367577,0.6614105781546319,0.5189646968071742,0.13954927438209141,0.4667270679084296,0
0.3854813698784617,1.2722861577457176,-0.03815006292669999,-1.6738459076193037,0.6350188817747887,0.7692932089217124,-1.4039390402445202,-0.7651493641642866,0.6949388813339921,0.7661181797700519,-0.2928094253636217,0.046293625138361924,0.9440824104360465,0.26869580619755795,-1.7513258333593553,-1.2037270306595735,-0.5879016526436244,0.13954927438209141,0.6094293605542326,2
0.8223618467097166,0.7255650202103646,0.2942694871987899,1.0816970432348134,0.599369555408188,0.8004885622973424,0.8082297518077315,-0.8148462470363772,0.8106648410953411,0.9321865138668312,-0.7772409140036509,-0.9404067504822357,-0.3348478502750862,0.1284956648372766,1.0837013420902017,0.18683366819512487,0.6175662921292061,0.21217222893328358,0.77771680250972,2
0.8930706185193189,-1.0078645735159106,-0.3518120539979492,0.2077464246318846,-3.0327802253581355,-0.10354194278541648,-1.4825721354155523,-1.0997840615809715,0.8160655966005428,0.9329696975339038,-0.1694132477920916,-0.40024433073963966,-1.7385118430755666,-0.2611327579070633,0.24821439697121597,-0.5378925264900708,-1.4863981795242598,0.21217222893328358,0.6357387262940979,2
-0.27874666862278313,-0.42851245207106814,0.8358077315784638,0.408156662225356,-0.44762006367217433,1.1581214335166061,0.2832292834387262,-1.6510328198943838,-3.119374672112732,-1.4211055342762806,-0.7619685504209835,-0.7845083620702618,0.11981652705293343,0.07630109685339571,0.40996366004141305,0.7528695124233191,-1.1915498437711227,0.17055241503320703,0.17353776120693154,0
0.004365716040408827,-0.5279180242930596,-2.0916473548469092,0.4230759459729152,0.7207215918156441,0.6693955156961924,0.9002468557899256,-0.18994229769066406,0.7352557249106948,0.7737553852264153,0.6835625122977388,1.0342733090586542,-1.2925134325426801,-0.8820861060082019,0.5277718749092457,0.6388760015420254,1.7241384108455948,0.0027051920731491685,-0.3960826928941531,2
0.1465488183452592,1.2796246865934862,0.8107961008520312,-0.40478200026184846,-0.7342289858759401,1.1112905476786161,0.3867047302022724,0.2553748077385259,0.048144627541361486,0.0482398851217588,0.029252290563174656,0.06192308032679535,0.9446556208957704,0.32075812240570534,-0.4502135726835897,0.5359602532533508,-0.030114032577021096,0.20817953174755563,-0.05266313684544329,1
1.2630252415079024,0.718073327111343,0.616443625054421,1.1209188449446652,-0.2509564336414462,-0.014673926471800314,0.843223562753997,1.3204590226571793,-0.9382935105301808,-1.4911240768623246,0.03562610990829889,-0.001221051853892346,0.9095241858779369,-0.3373859182958054,1.1653130832718932,-1.2001425421981793,-1.2252020514020585,0.04598450453752426,0.3441390686689035,0
-0.9088358394764101,0.9970720818501713,0.01535912351151238,1.0145683158026595,0.9363458666770752,-1.1752734772613522,1.3452700297832791,-0.9302034974470279,0.99816498703236,0.9433831417066615,-0.3265671510112473,-0.5504662881683615,1.2807620424381125,1.8716041982174383,0.821066305376643,-0.6964347657595127,-0.47242841476805425,-0.26326603194885173,-0.436400010411189,3
0.3140888091253123,0.030173808253328698,-0.22285383779943455,0.3656315106032851,-0.39859595000587045,1.166876767371305,-0.1756974693951526,-0.21341919146775762,-0.5037031542181198,-0.7421217722982308,-1.9979869382060438,-1.9521607050853786,-0.13216854416410875,-0.7150072034478205,0.4545407705620694,0.8489124445039224,0.07041574872911964,0.20817953174755563,-0.11420373112591028,0
1.7692255729816548,-0.4133503428505633,0.8400802293761196,0.22557283584764204,0.2645387654451847,0.49961319065425064,0.23979729673613065,-1.9446920594664503,0.5522003351879661,0.3914999740518332,0.8792092570706374,1.025951928233949,0.8428078705035194,0.7314018655437342,0.14025924102907555,-2.637064926455926,-1.6223146015817493,0.13532180489639278,0.25449379336624184,2
1.1743452141829533,0.6199701957020286,-0.1535245699745713,0.9570480659676357,0.8075309915577124,-0.025083006081937597,-0.5098091018758077,-1.394410128397634,-0.598147808977355,-0.9819336138453494,-0.3406772619917419,-0.18661271993958467,1.103086656188035,-0.37178834818742157,1.0055342637100215,0.8288335672987621,0.6786609276793351,0.21217222893328358,-0.2020425222926775,0
-0.0027812681187985083,-0.3725859664388625,0.5919824356434179,-1.4459800016796616,-1.1946834153862718,0.8377142740791028,-1.117365026422181,-0.3779958069571913,0.5860519013444828,0.7270779470006502,-1.3131218872965138,-1.356961811873733,-1.153651408854602,-0.21085197440657313,-1.4150512446047538,-0.8295883006578163,0.1062583648204588,0.22142148924034133,0.1579535140088853,2
0.44139358418967123,0.8456171793992129,0.16266548617738075,-0.06549695105222518,-0.7047464055994515,1.0635531665781865,-1.9027294912351114,0.4407863167054461,0.05978698181335992,-0.05980749654771099,-1.0577430870352031,-0.8882242054696678,0.8394324072945988,0.37252077609292533,-0.1098437483128022,0.3264171064672906,1.020988389201674,0.07709102150195739,0.04458018316241948,1
-1.0879405125548918,0.17649746833269073,1.472694248779698,-1.7237714006389195,0.10038434013361278,0.9691737405756816,-0.8529818285934927,-0.8220361996989866,0.8366509574051981,0.9330270173226084,0.6142132182472119,0.6338413140168982,0.10843847320091315,0.71484763995671,-1.9144647177505147,0.6523705350193036,0.9240566911802892,0.16790577057074382,-0.07298318808634968,2
1.2098706041898246,-0.16386638077684398,0.34155123820857924,-1.1683602422240975,0.7055099566905401,-1.2007764040917963,0.6427844928060459,0.525149326061181,0.7980805690730802,0.8837514296687654,-0.3999390211407927,-0.11213632560070302,-0.4649085220518672,1.1117725633600697,-1.40934771161544,-0.7779047794867296,-1.5857404605140732,-0.26326603194885173,-0.7710830968288234,2
-0.1875626003415465,-0.09150128400713915,0.5699693979726508,0.31277887858580644,-1.6209796633576181,-1.382492476442891,0.39596945758888435,0.8634546711711913,0.40695640962394425,0.38686809533895844,-1.5223809294725765,-1.4095502512680458,-0.6286137426198558,-2.133124847344609,0.5364407336151533,-2.926621035708646,-3.9484369616642514,-11.141174952296204,-11.654446470279614,1
0.014792213583495226,1.6585124622371152,-0.15048346533531648,0.9293131727661063,-2.6645740203297796,-2.8995876090801107,-1.541644596206339,1.4918080721654672,0.04509867588097069,-0.09583250809350871,0.3971650918189252,0.8505290395291379,0.8613148311744183,-0.8022800163354897,1.0162785884407575,0.20628782161828083,-1.2799592557299069,-0.14650732865330426,-0.8707835415840859,1
1.305360096045626,2.6045947168792924,-1.152552920600867,-0.08244331206241655,-1.3038642613751734,0.4132311314456779,-1.7571662482007513,0.8605284160229459,0.2388559247753616,0.0023941287391463215,2.5688167385681617,2.6854502334249073,0.17481265606534996,0.25207284062039853,-0.11019085789111328,0.5766932063602481,0.25658979376465285,0.17055241503320703,-0.49816081980727545,1
-0.02576006127963906,-0.05385745986225964,0.1892299726568518,-0.21824851408390428,0.8484729677405627,0.6950627314126762,0.06539569714141323,1.0819304388123983,0.9263486508878841,1.0239065270469274,-2.329806564350852,-2.2654711429049796,0.317557177104112,0.7288055845456985,-0.3214568132947499,0.3277255807707625,0.6891428610578965,0.13954927438209141,0.5532206672885173,3
0.483578933472174,-0.015427955723406593,0.027469425738529084,0.9173436442174003,-1.5824379911781543,0.01557155634500061,-0.5245589086497715,0.03145009805468662,0.8324969754950666,0.7943650621555844,-1.9101706392381574,-1.6958706245313246,0.45112473119154883,1.4715445577769393,0.7682216444462332,0.08508362793004672,0.24078842132445502,0.09574115625181186,-0.49964021870699,2
0.14961297852004438,0.6963125034807599,0.6676008596186155,0.45306450185354374,0.6404804466022119,-0.5852801629727715,0.4238180835852777,1.472839836729547,1.0700141928366447,1.027121326777501,-1.0084695062432973,-1.1774823724170338,0.9791847478006285,0.5169464275463965,0.40288280400032234,0.35928409743037365,-0.24337034215200878,0.20817953174755563,0.25130802885522985,3
0.306033971019238,-0.9052003277077884,0.25813132247452125,0.016693901788934665,1.02448041006906,0.8591322707058979,-0.4518619193159623,1.2625222090177621,-0.31413242690620075,-0.22126616895486403,-0.840261131220804,-0.5704504175782409,1.1247263204663898,1.8423877010481733,-0.2576012696843131,0.47302416354095106,-0.14546502544987522,-0.26326603194885173,-0.29005195294600883,0
0.4585309904443362,-0.4980522202966191,0.20868301410270537,0.3153558787544725,0.9246909135559089,0.9837674882625327,0.9431133415024812,-0.7137325287103515,-0.18502284211195494,-0.28173952308907463,-1.3545787356019288,-1.3112028365665054,0.22404917835112648,0.3767921396260908,0.2793688307247741,0.5766932063602481,0.7601441082622736,0.17055241503320703,-0.46488742140914063,0
0.5550608992333476,1.614820258928635,0.6347245444705156,-0.34974355705266297,0.1840088610094502,0.3578045381335098,0.9612615287255173,-0.142725368219484,0.8277510533232648,0.8960396885212085,0.5413733070648311,0.761347342581776,0.2208817028540325,-0.8793372623006259,-0.2265593950919553,0.7703723300708019,1.6064676546962524,0.2261438207195554,0.6172266010375541,2
1.3081052365192478,-0.7140830644216776,0.4730305107629253,0.5770924002136123,0.5163093639158121,-0.8576447031429226,-2.336074451693736,1.1007869275765374,-0.192697936386966,-0.30335540047883536,0.11595692748497673,0.09236502427412009,-2.617595240411489,0.5073580467698766,0.5311617746009151,-0.4906029420355823,0.506082559578224,0.13532180489639278,0.8860207732995266,0
0.12575756238646413,0.3784623201031302,-1.5001279322099075,0.9268203675081836,0.47464667533649335,-0.11390570749856435,1.266340042947658,-0.17445690223632176,-0.5339883933557716,-0.7565787447555044,-0.08880280684101313,0.2928087365226805,0.6492081643486134,1.5704096891660564,0.765883847033635,0.11661816237856445,0.12457961345787014,0.08739288530834581,-0.5643384083702571,0
0.4549552078492534,-0.17047986485182282,0.9737938893049806,-0.054592667607711386,-0.5697165855592136,0.851887686343244,-0.30914947960576555,-0.667135868051665,-0.026635162078833492,0.14886435555001146,-0.652080731291306,-0.46825569631111075,-0.35350199545668637,-0.2536320417631837,-0.01457336449088981,-0.456960508509078,0.6596294659657588,-0.17346398021314807,-0.2880955913461923,1
-0.317088477572736,-0.6465878785117887,1.2284431160937936,-0.07763928508472226,0.8896744284072599,0.16408643758002686,0.040508529122674095,-0.10755578662130712,0.5909429247905946,0.6785529179482815,0.05283664659556048,0.10195882603517953,0.90546619526559,0.5122262368072438,-0.14246494055306194,0.7669939544848642,0.7700727615363367,0.13954927438209141,0.6735562707567175,2
0.05965633546896357,1.154109586060667,0.39991357398281235,-1.6180503531849937,0.845616147211755,1.0554010991945888,1.0452163226425057,0.9905080997214575,-0.45202344420796686,-0.5443566023840531,-0.502319961956701,-0.20737907577602444,0.7522956249869126,0.6311019833683882,-1.7797486664876572,0.271381036894206,-0.2267751829705423,0.2048670627167452,-0.05320725081487303,0
0.33125587828146513,0.7340360092282472,0.3843385610220541,0.47629562417712795,0.9822790825898849,0.8484872789461281,0.8074243897866461,0.5019764326537444,-0.21246163688850464,-0.3567545071672025,-1.2190335191203034,-1.1416308656190286,0.9592394748318694,0.35111682665782706,0.44673127828765336,0.40804498552653107,0.7589514599953303,-0.10644390244678745,0.3813195387042993,0
0.8415898076897644,-0.20439000886926154,0.6047178067039393,0.26461784949051853,-1.038130588795894,-2.1203234692117854,0.6371230606962565,1.3038002400288926,0.05388313488314175,-0.2647682515048054,-0.8003745086055691,-0.898448314800463,0.4209053220909543,-0.48874169192265066,0.3306769381015331,0.22790436670906478,0.9328528249689929,0.04598450453752426,1.064387332894308,1
-1.1455253036785238,0.7848906837643632,-0.3894507131256925,0.6614398242929533,0.8534290727473717,1.1747354505638985,0.9450443804191104,-1.4969327923420959,0.3803423929627636,0.44832050545261787,-0.2218201136890059,-0.3439016873201133,0.5525055394667243,-0.7292416416734008,0.7466080268257851,0.8288335672987621,-0.23306563814694373,0.21217222893328358,-0.01819651221887015,1
1.2406201932059477,0.5124466890698398,0.3774652945512302,0.4762970437573035,0.7134362398002091,-1.6800690095226454,0.2737782510593002,0.37680566475169014,-0.3160007386485713,-0.15763819317745284,-0.26355255707225494,-0.04789728558250017,-0.39408407611601787,-1.426355699574911,0.630695544311335,0.438571888807939,0.23093519761032652,0.12643207590781844,-0.003933079671495591,0
-0.29557130217518923,-2.734061100015897,-0.5178816484718023,-0.7380227585355753,0.5519324359736018,-1.2331965745092983,0.13608359621568095,-0.27125839380543804,0.13264857121574813,-0.13098915065155076,1.335971353450707,1.7696735331251547,0.41740531858656577,-1.0921107480195953,-0.574720695231673,-0.3614943040031104,0.054429125880328305,-0.14650732865330426,-0.5133694901470351,1
0.2790827436178952,0.061314686007471926,0.20731127337446023,0.993515440779728,-0.21803663154555614,0.18983119211479277,1.3151243957675671,-0.6648761997475563,-1.2302225294123192,-1.2453956967853366,-2.2731407591110107,-2.1678861476527627,0.5288549046472336,-0.47422580045973894,1.0509198963154918,-0.7508611018023953,0.11381811619909248,0.04598450453752426,0.9260347546952309,0
0.14888646311810813,1.3132004315356083,-0.32219749411067006,-0.7072414785846893,0.5972754823471581,-0.25715881733163676,-0.5868541315514931,-0.9825884355585683,0.21006074764971494,0.18149382035429354,-0.1869688949850013,0.133252211262418,0.6337374607970839,0.9473722391647837,-0.8761654315630361,0.32622658420393913,-0.5188143382635598,-0.03537815070044339,-0.08779698478539051,1
0.051780331926036004,0.6643873680686032,0.40870314535783503,-0.28812455574867535,0.19760091996316412,1.0847334710864762,0.6698213542070354,-0.85364135192796,-0.2987005189955949,-0.1919037070409649,-1.3960646611717007,-1.3018664413017305,0.47671207329371107,-0.4145100929368577,-0.22611960781511203,0.41104391540994417,-0.5182863574035655,0.2261438207195554,0.7472514757923076,0
-0.1801520956822672,-1.0295143298074285,0.6128041754383579,0.8868313441205931,0.5848776096074222,-0.15639306580585982,-1.1670688904190347,-0.24783157474538303,0.4738354597203041,0.47404615287507995,-0.4400322796908613,-0.36512033392679005,0.6180278287065715,-0.27968682221923585,0.927139629818882,-0.19755400470382967,0.10254021867208687,0.0027051920731491685,0.07082786268097822,1
-0.5969172702085356,1.2265916496323992,0.7524884001442002,0.17270591581995265,-1.5976667572918457,-0.9868943045815147,0.8959188220113756,-1.8972688675671705,0.21998212506866419,0.25470721570989696,0.08308727671134498,-0.051346469486287696,0.18409672649349512,-0.4780224554093069,0.23848885367279005,-1.3408446081210919,-0.5619224099918737,0.22142148924034133,-0.6746603003809529,1
0.0400927841254498,0.4668930947771459,1.3944741894534802,-0.7525397883086792,0.938988770985557,0.5323977800932004,-0.762847885009971,-0.5821814154755107,0.6112942819102714,0.6699853890056243,0.09416281312633734,0.4650275603175443,-1.069913207416118,-0.34833736061069,-0.6972951393324305,0.660399471498914,0.8152331282736702,-0.17346398021314807,-0.3534256885978445,2
-0.8851877252517567,0.5094200425607601,0.4085193901078775,-0.05604444505175359,0.3453356079565192,-0.35995168861388993,-2.1288327821741264,-0.0865035896996563,0.3781464927574019,0.3573782840172656,-0.7985116557416636,-0.750673491782478,0.8214338354050339,0.5676264353191229,-0.12826116362777504,0.8118000699812241,-0.20147696079397392,0.2261438207195554,0.7077561527420049,1
1.2710779268106709,-0.5899138823269502,-0.4339647173032067,0.7583165653008389,0.9832503456675032,-1.4868054375284416,-0.6139141673408846,-0.7138385399159344,-0.0017787129439882654,-0.06746941755491684,0.010204573790192455,0.015528417979149368,0.6235550955265915,-0.22900257911977345,0.7941130499061523,-0.19755400470382967,-0.430937554463166,0.0027051920731491685,0.08769396354658021,1
-0.26079189350717863,-0.22412682795541183,0.8407912110077688,-0.052012143179178134,0.31800169545173257,-2.523770523945806,-0.5225991098577403,0.344419024149985,-0.25964628204971313,-0.2868128522238773,-0.9050629942559328,-0.7729929562850851,0.3383590434605249,0.6245865967615005,-0.13246682814162497,-0.5560295717839895,-0.9354208089879834,0.20817953174755563,0.3021338368549802,0
-1.702852856006641,-1.043329241752685,0.25432793625812095,-0.4447067972313199,0.9298076338691164,-2.064718458744457,1.2794327338168348,1.37274337694657,-1.4957312771835154,-1.7165247311522382,0.5097178373374364,0.4158220039438841,0.5143046560126657,0.5741586743998435,-0.5324276770003997,0.8118000699812241,0.48931998772311625,0.2261438207195554,0.789330085168506,0
0.8568504620359848,0.31080764869225413,-0.011227227921222249,-0.19964109160625784,-0.05251027437634307,0.2216018016427428,0.41249574990392585,0.1821569781533836,-3.119374672112732,-3.1896275377169743,-1.1339181819050548,-0.8652140051125395,-0.44586803456956664,0.33744298559394265,-0.24229962398718413,0.5766932063602481,0.8677668693023107,0.17055241503320703,-0.5463841787764776,0
0.9395597446419467,-0.40323499276670033,0.6252547874182897,0.6623379773644426,0.4826055781548902,0.7831891947409021,-1.6466565530325528,1.3996320872745946,1.1302418377673356,1.2009073643290449,-0.5238384549161966,-0.6861052042595139,-2.1827709494382055,-1.3051507437830323,0.7994939857712939,0.22921730396803108,0.39584543072143874,0.12643207590781844,-0.5264452976847136,3
0.700283478901745,-0.9913153315160146,0.23441305963375905,-0.562754079137228,0.6919096997784187,-0.6277148393921124,-0.8055154301760558,0.9931154431712541,0.0778515739898759,-0.022053814017938125,-0.4666986659416206,-0.4272711380379675,-0.9345322950182936,-0.07893903397138169,-0.5488188146925292,0.47945630940118966,0.8383582089228965,0.21217222893328358,0.776607460371779,1
-1.1876674732022463,0.2667249221759428,-0.4333637026888788,0.40114825911369745,1.053330982761491,1.082673326812433,0.9513514583569036,-1.8730574385709278,0.799473441288249,0.8704804402617771,-0.4609687387837894,-0.28144147742022674,-0.23993022909290024,-0.0540294769664558,0.41791966248887413,0.40129361527229557,0.8231057534204436,0.1778242091011124,-0.4622548388627846,2
0.30571337311685304,-0.13730474786992133,-0.24795790454150124,0.09052850332062037,1.0476136083844485,-2.337795763260047,0.12362144540806436,-0.1173832446519161,0.6963189458308523,0.5962867250644406,-1.8456461529718131,-1.8960319317661427,0.11065312727508687,0.06893184968475234,0.09000481872062445,0.5491058277502896,-0.6091014937247194,0.21217222893328358,0.32914579808750194,2
-0.4007144445889249,0.25002610015209364,0.07632037443188426,-0.8827376199881456,-0.9784709883021443,0.46529751739861164,1.2187357846224656,-1.6086555303749794,0.4798868129551104,0.5807486825015394,-1.8311434318660604,-1.6191030360777157,-0.7034161024268138,-0.4997353579328774,-0.8027351738771566,0.43793704300783093,-0.4248425100446835,0.2261438207195554,0.517375682792933,1
-1.2008321911405844,0.09625420997263344,-0.39592591468321603,0.5381794931682417,-0.4937839907357259,0.608843985636289,-2.2185674808027547,0.8662687897658676,-3.119374672112732,-2.170788353288507,-0.4870559785215383,-0.2621123686272166,0.8933779048718558,0.2982652804361714,0.5159275121654948,0.40804498552653107,0.8097693666449671,-0.10644390244678745,0.4266522067026189,0
1.3882471307288553,-0.7141229564041758,-1.192148427696496,0.6516314973261335,-0.6333530560633668,1.1497474670492573,-0.6161304558335039,-0.24541809830205735,0.46787308468897676,0.49077256296168215,0.7084442304862171,0.25767452163468485,1.4223402447274207,0.8855132179486456,0.5623881044977765,0.7143889024579696,0.06881650709023719,-0.03537815070044339,0.038080532442883265,1
0.17198167946603912,-0.10509076645410173,-0.6205865731696774,1.4575136088876681,-0.14877502185351998,-0.2551149128387076,-0.7501351226392009,-1.8354155015041167,0.8343511111274121,0.8252965282430303,-1.3611816506034864,-1.130109699053532,-0.48479461601338447,-0.9041485339505343,1.542515944627886,-0.8087136411240837,-1.3280636020535288,0.0027051920731491685,-0.7502942324392624,2
1.8305840516254985,-1.1406296546379118,1.0395390214372253,0.7105727183595064,0.49418592911453446,0.41586253805509327,0.907317425077479,1.170936105901751,0.43106177962718667,0.5110911162261816,1.4039394079734002,1.1471320467714285,-0.9851172046620873,0.6021375298600531,0.6569364890382448,-0.3518005701471827,-0.31563151430700986,0.13954927438209141,0.2780881492232129,1
1.167651670440286,2.289927652145054,0.6920454723298176,0.035119509171328826,0.7861701901738078,-1.635095867300812,1.236714215275045,1.0703365886982996,0.14209565959695514,0.09112602676661073,1.905061754793894,2.094014500159815,0.057387623709862015,-0.3844738180737043,0.09103192590337474,-0.7539702907801275,-0.5214844573977616,-0.17346398021314807,-0.24940682385302135,1
1.1119121462436108,0.5694019428884532,-1.1891942224450833,0.5667238386832879,0.5496310499455035,-0.8296000046378263,-1.9712684168344505,-0.46208433119144715,0.8419191510921811,0.949934362028234,0.24096463729270273,-0.15928418899948601,0.9371356500688459,-0.007578639366222558,0.5791667995318807,0.6069142224781747,1.2957943296644092,-0.10644390244678745,0.6631358990377919,2
0.8566158458811347,-1.2906167834293962,-0.7476673279188749,-1.0278023730526755,0.1986438303693611,0.9210584933824629,0.526668269413871,1.1374845028864793,1.0753311856926009,1.163000387178247,0.29297965528837966,0.0388025804242338,-0.7512271061767296,-0.24035178332915638,-0.9899388024601377,0.1830789664513207,0.6407300312997384,-0.3055834224504184,-0.6323513769951511,3
-1.416723391453632,1.0651258198538764,0.0325087817040783,0.5847394837582337,0.858662026943485,0.9114952821236162,1.0850059217315986,-1.0381477277582605,0.5130636833558291,0.5779470737874022,0.21673824277034512,0.04302230359856029,1.1975659488428174,1.8447349865214535,0.36204077266637363,0.4549092861647701,0.9975620076331638,-0.26326603194885173,-0.3199026568304961,2
0.2802950932152903,-0.5777662833825434,-3.4557199404228283,-1.112521735325158,-0.1402022988561018,0.83334024539735,1.3399881333056716,-1.2956376929252171,0.7703524419532858,0.8997041673682679,1.817988150809954,2.3191806929789256,-0.03598883332132249,-0.5509866715354397,-1.021193087303429,-0.09770704325551079,-0.2616687387919314,0.04598450453752426,0.9766352519822351,2
0.8915449760795233,-2.1003646997564362,-1.2906945212807963,0.32733525199118846,0.337923164115854,-1.998711849686442,1.1252183846370183,0.022611163906236516,0.6399749260367456,0.7485800605735304,1.3129708682407915,1.0980907063105838,0.8217603879490952,0.48862248036504874,0.27745011359202143,0.13791070745435177,-0.6109217781376256,0.2261438207195554,0.5836689456482296,2
-2.368322628377709,0.2201979486027384,-1.0794205979895548,0.5945811272325752,-0.8951971523955234,0.8121600613276031,0.4779269861693431,0.8158324929640292,-0.26623996060802635,-0.34891978606193325,1.0496912078266016,1.1665101949865382,0.27505958346267395,-0.8875051045151199,0.6959764198454427,0.7703723300708019,1.8166759411458162,0.2261438207195554,0.7121031243094806,0
0.9213868391746171,1.8866345853305562,-1.9179539240875436,0.2753532119294777,0.6879470418392767,0.7185628536135376,-0.04357081291787598,1.205806379012091,0.7498440009361435,0.7722329535021746,1.8052788538329636,1.309251363876084,0.4212538215995358,0.007040482232792284,0.28421465987725275,0.5701548322831017,-0.6641004100176174,0.22142148924034133,0.16266329169397956,2
-0.08018552845510499,0.8435234493798659,0.8332100748338129,1.2958511601375866,-1.5186044130298486,-1.2103453777287503,-1.7360761109361946,1.4456912313784507,0.07088994798190777,0.006433946012440535,-0.563781761588972,-0.7905136466684329,1.464849533561924,0.5100542778602772,1.2644867528831387,0.7338614898950705,0.6700787016652059,0.17055241503320703,0.7639043478567403,1
0.3295001172227752,-0.23818948317616542,0.6839315025801681,0.12932190349757183,-0.7352341928629174,-0.5445399203067125,1.2999344417150043,1.2855066924236986,-0.3999995045719145,-0.3076747494799053,-1.214183590632252,-1.138956014375021,-1.5609114545438696,-0.47727688966138165,0.19545106710417143,0.5970472539038042,0.8992030164927374,0.04598450453752426,0.5165403105235806,0
-1.475593697768713,0.6825308371970179,0.3573423718813245,-0.2447783712895349,0.35841107432181074,0.6710362020783888,-0.6501249646835188,-0.5957018344240992,0.21170487741462848,0.42151002131017595,-0.028586547915347555,0.1225364191841265,-0.17497091313947738,0.45742258808580477,-0.306719842095292,-1.7706469767299176,-0.18061765731374127,-0.5610715521332668,-0.01915064653648347,1
0.4438339118406318,0.9187268253996178,-1.3031446641629958,0.7534621002926771,0.15745854433839757,0.26280911042261923,1.112147494176725,-0.5969479359528355,0.21506850797855936,0.3551354016895078,0.10750004204495513,0.012073439047619379,1.5489110319099197,1.1971869651669202,0.629935862017558,0.5228986048921788,0.597922602549289,0.13532180489639278,0.6111334980078929,1
1.1860842511329952,0.5780721125475656,-0.6354707447389324,-0.14232303707895747,-2.7956597715515863,-0.4303637891035289,1.1700463791904725,-1.7202281994848805,-0.025356308000390758,0.18009534580844924,-0.10554962632859313,-0.1619716161803966,-0.030143431882161276,0.15994808610625694,-0.1582537608995688,-0.42311682475341067,0.096740706328798,0.16790577057074382,-0.24142043878742106,1
