acceleration_x,acceleration_y,acceleration_z,temperature_c,humidity_percent,wind_speed_mps,fft_peak_freq,fft_magnitude,degradation_score,forecast_score_next_30d,vibration_rms,vibration_peak,avg_temp_2h,avg_temp_1d,temp_deviation_2h,wind_max_gust_2h,wind_avg_2h,wind_max_gust_1d,wind_avg_1d
0.5212887093705438,0.9492159635384324,1.0209753790942593,1.3423638415886259,0.8357508593147135,0.5293600145104708,-0.6652538924159647,-0.22381855085952856,0.549844398004963,0.42102667161935553,-0.06820667332701737,-0.3451567071135771,1.2077161442198763,-0.7777552683766729,1.4190056271826996,0.7901914055274604,1.102670397514225,0.22338360669441423,0.7375623025462652
1.0848257058387598,0.6652949761085957,-0.41523521584201734,-0.6817842316164915,0.3234206710618255,0.6771487431496757,0.41953470977086116,0.03388526657257979,0.666539758818914,0.6090751992304977,-0.3331177939953221,-0.3564852433912691,-0.30044106177784874,0.44912917190991547,-0.754372367853092,-1.3143621610149785,-0.32267139652415544,0.21835121958008946,0.10501962201159536
1.1326641998680718,0.8392436679364176,0.18570324856374787,-1.1340071275624741,1.0635800292603474,0.7165584778250808,-1.8905692996919563,-1.0824003991095523,0.5167946625014265,0.6194236472574203,-0.2201448102169635,-0.2528917449900055,-0.42119545682065,0.1533557482276727,-1.1701300124317349,0.6788568818082393,1.0432199372449862,0.13110349440717206,0.4339545109533488
0.3004590227876843,0.40833036314177706,1.1745112846320513,0.23811405849181339,-0.025663751285026855,-1.2126204966379603,-0.41328266601713187,-1.6022399297052867,0.317208357187131,0.13660547654871755,-0.3157138768096258,-0.004886478561853753,-1.5759437316093574,-0.29626778140367305,0.2801223543400029,0.2160352705621208,-0.7444666167020575,0.03139551240864327,0.1618272070485974
1.218640050102186,-1.2112544567497598,1.1298223387206165,0.2987145712658061,-0.34850372892099785,0.029497577982921065,1.0228570191644732,0.71360791466665,0.6087719429807962,0.5389437679569687,0.8401711099073242,-0.06807350119015886,0.49757164217326827,-0.567354331972123,0.36912553791841085,-0.09679142909253305,-0.5476187810635411,0.03139551240864327,0.8787283393273149
0.4082949169710543,-0.9047772290000795,0.4748421726493122,0.7934230213981295,0.5433436462860296,0.5657223872832177,-0.3745795058977402,-1.3258820421407027,0.779896935461563,0.9607238258691885,-0.714920965088568,-0.6232903843544876,0.5509364946964035,0.9326712357721814,0.7106424406877699,0.36272092210313145,0.8138467697843514,0.1265984605992591,0.5556623605117587
-0.1353444642537718,-1.8831308523972117,-1.996313315110409,-0.5638562606076012,-0.6128581566430715,1.0007658211907213,1.1540174221596602,1.177805720137592,1.0567072408770557,1.119339906968355,1.3790809253176597,0.888910842579541,1.193261941185608,1.87415934805568,-0.8862880184578525,0.017936567769872624,0.6654181818074941,-0.2981595859071291,-0.6291229663319078
1.1703054754101967,0.5946107293652085,0.11391502367774478,-0.07248787915558116,0.7322800064988206,-1.758353660735614,-1.0877234039280117,0.11867009293978069,0.3635104114480995,0.42293957378070446,-0.37833083593658556,-0.1717631353182417,0.23394320740455796,0.5881511376080203,-0.14412567350631028,0.8333594448991419,0.7227153261240282,0.1265984605992591,0.809665459631996
-1.7099019368681927,-0.91344191884262,0.32285230618915195,0.538019499301128,0.7870960017016753,-0.6818893812980862,0.10482763637236994,0.7637803742379345,-0.45169318998281466,-0.44555217180833034,0.48273196314061206,0.5074567192289718,-0.39938015060075266,0.31961512731952,0.5155033084907559,-0.3065482906264477,-0.2222709372297962,0.21835121958008946,0.20617762429702913
0.910665791708799,0.653038697231609,-0.21548252244326016,0.8887068979453051,-0.328771146524812,0.30881534773760094,0.654129754187711,0.4805467050586363,0.84853239675609,0.8879428394846912,-0.7137804011541307,-0.738383482478013,1.2756020526263279,0.42634563927563024,0.861739809260718,-0.8582508806766097,-0.41949878800576995,0.16132180217639355,-0.0766159645545872
-0.04673807197186611,-1.2919048452160098,0.60941817247549,-0.07962330376141599,-0.8168107472395815,0.6134572078466677,1.3384385717651937,-1.7278146862700525,0.22297613426845764,0.36864255054882494,-0.19106553192561018,-0.016522384786993954,0.4556391614726024,0.7612549322932354,-0.17577567839748534,0.5544493140845563,1.1925350122216363,0.22338360669441423,0.9587297465394526
0.49092761294125375,-1.3582982839752067,0.43455454245410835,0.5184801419727096,0.6785648969977397,-0.025241139222045704,0.14965702180054294,0.6005426427250768,0.24921706139977173,0.21525118965639392,-0.13822823265851028,0.07999183542380235,0.22450694581431824,-1.2680061106760514,0.6508957294507921,0.45530917100767454,-0.5202784646999062,-0.01472540377888456,-0.08265850846119462
-0.43706851848913764,-0.0844891204153483,0.13157848335818273,1.5950487805843054,-0.566489128456649,1.081662224812689,-0.43302465076518354,1.3462559321584961,-0.0485470673540818,0.03150367633524292,-1.7007167637308758,-1.4826976412196684,0.7984424339310642,0.8737935745415182,1.5430595027406644,0.4270275854735572,0.5181685836432844,-0.055309196824292806,-0.0004071395596800785
-1.2843142240167635,0.6650511841325077,-0.04206626229826281,-0.08114217277789368,0.7741556482214493,0.788092386985814,-1.1508147720324262,-0.18253924004186614,-0.018527940401468213,0.11985976935988682,-0.23464029692907257,-0.062297076014372996,-0.24821068762386067,0.4629287932372041,-0.13593979332560718,0.11818680982192185,0.4602063898480804,0.16414221822463662,0.33266667643297687
-0.481946568249651,0.18500513239647454,0.6633985103193192,0.9211166673224751,-1.219292201637728,-1.7674529863764294,-0.04994325396406396,-1.8871938427801853,0.7856083563951909,0.6565849166651359,-1.10041840368924,-1.1621910913878295,1.0864500076919268,0.7304916242267983,0.8641249120032934,0.8355071187921906,-1.1557360697926093,0.13110349440717206,0.4593944964471451
1.5617367094553742,0.06943933358105034,0.6823662318963487,1.3394108724766107,0.9728293131785972,0.8229493648632977,1.0099730988232867,1.1413176621470384,0.989676064595567,1.0906847171099074,0.39712701174738174,0.6530423920537504,-0.7083520262661276,-1.5126655206446251,1.4669657224990615,-0.11140988910421631,0.8559042069581779,0.11712505581840998,-0.2698618285719143
0.8344821443571339,1.4509215105736748,-0.12076739065853644,0.03029551653579046,0.5518770505737237,-0.2727764907558657,0.4363039915063208,1.4190186746754585,-0.3261869385709094,-0.892682912856392,0.26755942038933284,0.3943200584686493,1.0728811009203267,-0.6422339537395475,0.11159760001042267,-4.306002343416956,-2.767997991287652,0.20849467761746984,0.15382089931472584
-2.112845563832807,0.8735910137551935,-1.0179859072753892,-1.5731071492208788,0.33092970905869246,0.5678569347499817,-1.1226302970532036,1.333164887099926,0.43509721169685955,0.529527212777263,1.073798589929232,0.9806654164984548,-0.7461330276767079,-0.10751144500556507,-1.5691278946454428,-0.5465624750072431,-1.1867845625888784,0.20849467761746984,0.6022799884972033
0.7398447965321896,-2.124385393345235,0.9616111276708084,0.34642426516374775,1.0415580544899679,-2.714581319907509,0.941796268016253,-0.0989137989267884,0.7234025763211349,0.6861993079462115,1.0631707417319942,1.0624204901069616,0.007125781200880963,-1.1118976610439772,0.46940259358688063,0.8288448138909298,-0.13162019196424282,0.21835121958008946,-0.9625023455240712
-0.029861701709153504,-1.475936456486304,0.2536096860109885,1.203928835713151,1.0526468883672473,0.749172406684937,0.6784041986900324,-0.10149040791444679,0.6652671279441343,0.5041480004717865,-0.14578429502567003,0.24608015720328089,1.1324058228295757,0.9052049897290562,1.137952126235621,0.7470507176901685,1.3194168131048165,-0.055309196824292806,0.2751809512875196
0.5615394328355524,-0.7353748546479413,-1.6248333035125127,-2.217922368842673,-0.639219267028185,0.8848658975853008,-0.731166067026847,0.8769791607089074,-0.0712717606092841,0.13317929355171043,0.3761119881042413,0.4256249483813757,0.062590757356944,-1.0655973328182589,-2.01408843932799,0.3173330214916911,0.7231827096456763,-0.01472540377888456,-0.6296771016662301
1.6915476311439335,0.6121073150552006,1.1594712276766617,1.3380794028311278,-0.9382267813366396,1.003733232173753,-1.8438537505261479,0.4486182736054389,-2.09356595868049,-0.9313711052503656,1.0721271395429408,0.9194778663503718,0.5423998419719612,-0.48761743977618227,1.3931955603318014,0.03322218046024419,0.8477616422605934,0.16132180217639355,0.004273138167960818
-0.8761042906788552,0.1068974221450796,0.5843926875029728,-0.610181475666759,0.17118928182459853,-1.3019863995158416,1.0141057029814722,1.098688629673986,0.578086391994496,0.6183972777606231,-0.7504129716108784,-0.691621931754832,-0.44270462280652917,0.32025116235544715,-0.6598168805896243,0.8608522040782589,0.5834916116727842,0.21835121958008946,0.14171008442819433
-1.2748228604496374,0.6590511512177382,-0.7235773636951717,0.6233999205360751,-0.5081151256373909,0.27713643737822924,-1.727161600603283,0.9076786275753482,0.5822900007114391,0.6600311987542813,0.04935501072763111,-0.07593934460099569,1.1854766940758026,0.8537758694278438,0.5432696019793553,0.4005555314849598,0.5110189144777069,0.1265984605992591,0.7553737882149185
0.35354775689976425,-0.5809306879481988,0.7382690879504544,0.9013563187064778,0.6760500583690857,0.4434320914015171,1.1669861722798907,-1.457260422236868,-0.6059169416072477,-0.7340985241081878,-0.8237344920655817,-0.9881022661144198,1.4485316129662142,1.2619771444005994,0.7863967547568834,0.5373286455107078,0.9622232751366671,0.1265984605992591,0.6198508376481571
0.1982104866635643,-1.7950787973674398,-1.6148282019720468,0.055222781669852734,0.7821176398671943,0.7548281485535169,1.275671761818482,-0.08292602366052433,-0.0471450252730353,-0.22704783776676304,1.0395793541321696,0.6674413937974288,-1.6105148466392178,-0.22887942315973778,0.08952672851275016,-1.2782577280048353,-0.490190385251555,0.03139551240864327,0.4677481868336348
-0.040041681657322546,2.1304824063993926,-1.5048433110197494,-0.23970430915747692,-0.4808232138507757,-1.133283576147763,-1.0857567040206884,1.0890802395841888,0.6343151267837629,0.4409264639279997,1.6950853233909444,1.7332401654422374,-0.992796383374784,-1.6053292673231585,-0.04789600440530302,0.25498703272626766,-0.33058673433907065,0.1841907028036666,-0.8406425722387926
1.8377660988221587,-0.7864981284164287,-0.18229210325037723,-0.7017959105784853,0.4922477080203277,0.6342941125893082,0.9858334227334496,1.3145775187388014,0.6674504155928885,0.707530269310731,0.9580511800123171,1.215681519071481,1.5301977304399281,0.32629322305542907,-0.7551176660198136,-0.5071919054939565,-0.8712975816508859,0.13110349440717206,0.6675078166936704
0.34337786946023857,0.7357112678418315,0.3734522008486532,0.47714463912976357,0.9756384104095124,0.8508592798275747,0.8028219720989244,0.5029818301036517,-0.2235276599788898,-0.38296426125828953,-1.2225982879108162,-1.1344674094859917,0.9619586821801928,0.4086367303570417,0.44350425804987864,0.4199739519174831,0.7677068228996569,-0.13104093546488998,0.3824991379315686
-1.850557190329731,-0.7302158223590564,0.14524411006864954,-0.022340134065319563,0.4891364764735298,0.7949690257096063,0.39239850161613504,-0.7591725865832859,0.8724844107539987,1.0396140993465894,0.4781533979482354,0.6793222123330811,0.5871714207684563,0.3775183902294787,-0.06411614683131008,-0.8582508806766097,0.13944006147118054,0.16132180217639355,-0.15369204734405364
1.2741598899045778,-0.5923635881610151,-1.0362759152909902,-1.789531270851625,-3.3137960328327836,-0.24018682662355073,0.9748235831018107,0.9502369403394855,-0.7009180671280267,-0.639791494269492,0.3877919002477113,0.05036733198263681,1.1092999320846921,-0.0908799131672624,-1.7922364220267022,0.49038127840838236,0.32994529643150045,-0.01472540377888456,0.2950431676504221
0.5586940226334883,0.6125519926020454,-0.04139812855390566,-1.0711759168730894,0.847883215978151,-2.3472063939760974,-0.767532384609523,-0.9319756499608293,-0.6811615702821266,-1.375098287175348,-1.3418600024189402,-1.4127278486986607,-0.5079839112975212,0.29350355903279934,-1.1306241574695324,0.8549741976798327,-0.26847652497109264,0.17189145881192397,-0.38621266334473303
1.055900378254787,-1.6834634300766154,-0.1536260274125135,0.2629473363328647,0.48627757528398113,0.3862056050025046,0.2907542724670629,-1.003460471021901,0.3317537768713143,0.26641138833824834,0.5575951771298743,0.5246867824498869,0.438969203230679,-0.13692029949565954,0.28747180158539054,0.5177439526496852,-0.151641308548664,0.17189145881192397,-0.4052627316136154
0.17293289001974085,0.3664892471224193,1.4228716492367055,-0.4975735018696093,0.4201502529132998,-1.1883627399205383,-0.056998003656754975,1.5496174017142745,-0.07234588412874206,-0.0988469332364846,0.12662937245542982,0.5333957618285707,-0.5411185523803151,-1.6162311502219797,-0.2926476030236676,0.4649081696034814,0.8527607200454501,0.11712505581840998,-0.48911032186334324
-0.03971548134238926,0.09057213066700746,-1.6095791885225992,-3.0499773752873782,-0.7721312308004774,0.7734525106663637,0.49291517264225043,0.7450973562106039,0.25017190854460924,-0.023403715126667866,-0.022883038306241468,0.40539487571089,-0.0014525999305053858,0.2834007416397791,-3.201368954894477,0.4529595102988733,-1.2375466209719064,0.21835121958008946,0.32840165458049814
-0.45325843554100365,1.5867514622964116,-0.05285842310249836,0.37551939457382766,-1.9638444262712418,0.8387069816704109,0.02545592031942875,-1.768274590150085,0.40634061364108476,0.19224015184959337,0.3359875276386047,0.6698822235404135,0.24510950626106137,0.47098209761036886,0.33228144861779857,0.8771971950007269,1.3837914387357753,0.21835121958008946,-0.11778441696567546
0.4714614684123135,-0.6582863630229266,0.8665736273735235,-0.4857695674518878,1.0799303769083153,-2.6304410072327453,-2.0658066046853127,-0.05733356392199102,0.46348525661948525,0.46283419229508777,-0.5037130383655506,-0.6935606758567916,-0.695697837768835,-0.20847849163922857,-0.45567300576428316,-0.7891592769142006,0.1154693431715356,0.21835121958008946,0.0749794619025842
0.46424043235574414,-0.18958878545605132,0.9695503017875603,-0.0641885738819209,-0.5409222034995647,0.8541697725893526,-0.3110908137430026,-0.6661177828309425,-0.03424418780900808,0.1386380083180152,-0.6505766311707538,-0.46048515431531295,-0.3396969817776331,-0.24415331089254314,-0.02828623594211015,-0.4638680660326007,0.6675104065134243,-0.20246137200921502,-0.2956731522512233
-2.109279265601244,-0.5568237282490883,0.41351088299187677,1.086076713093689,0.562997204487752,1.1488669556939497,1.3202286014563547,0.5291682413473584,0.00875718998919662,-0.0009118392958948385,0.6910137900245837,0.9767254819006627,0.03218977277890013,-0.4124813498604426,1.1366753440502824,0.7557376786630478,-0.05175961739576791,0.20423983062985387,-0.29861794348958065
1.2727873465379969,-1.422661392964568,-0.28774719316451186,0.1606484211068002,0.35176411417115466,0.5299167588985638,1.040749240462148,-1.9692224127708065,0.10972695395519176,-0.044820910474266104,0.5809851220270573,0.17162575382494283,0.12962317069151155,0.2805621094910605,0.13532768676819487,0.7528854983621552,0.39897739068931687,0.16414221822463662,0.6187740703548924
-1.7362559969235698,-0.23039121122587494,-0.3410836030913976,0.8568303950709045,-0.6001120037313811,-1.7846730715960375,0.3781233901720118,-0.6364151043705446,0.12490324785316131,0.19839365071740075,0.21156398693079145,0.5402360891007524,0.08189110875198316,-1.5034618158615405,0.9981886879244285,0.4511656148422228,-0.36355170473579357,0.11712505581840998,-0.17786111610733207
0.41404487361050507,-1.3106118050675786,-0.5347720342038265,1.0251568108428604,0.740325884564978,-0.29990630609160507,-1.9713377134377652,1.4008139309938465,0.934789708078816,1.0335091148958926,-0.13268076667016845,0.010879673878110372,0.820017250968949,0.9829283789045963,0.9454323920383305,0.8774855517357312,1.618481549467673,0.2189533492431379,0.9994753426057317
0.24635748068123745,-1.935706013991607,1.5084625453236709,-0.8727687896569015,-0.5550324312950013,0.6726352496948115,-2.329648951623357,0.6680185523958944,0.1641029339744327,0.19870703056359895,1.310760478178468,0.8407234061514185,-0.8189486335526724,-0.243089757012473,-0.8391411864413871,0.8090445786758599,1.0512889487109016,0.20423983062985387,-0.1583893841763384
-1.048448438431522,-0.19852199419876046,-0.4177730454714063,-0.2996547497738929,0.4269349753202871,0.8502626749272675,1.02992790897696,-0.9116126589121509,-0.194951542846178,-0.5148201119284707,-0.5568712002246649,-0.4148494651338898,-0.936744712394529,0.140543141175306,-0.3156281499465695,0.8608522040782589,0.4053584818863899,0.21835121958008946,0.29368091089162623
0.2905132715747935,1.1342302800121733,-0.7228651668431838,1.5889545520751696,0.4013809137576613,-0.4149799857889671,-1.4034761206982074,-0.6316041282386681,0.6005468309381451,0.5711290638142783,-0.24824391554821973,-0.2655348837812679,0.2010716109872963,0.056282257462949875,1.602659191783945,-6.900217111711203,-4.565902272775875,-11.890282867067615,-9.360194846323362
-0.7796377207197643,-0.06615105510714078,-1.2403943803377062,-0.9556816524961959,0.9227738420601457,-2.90590790795203,-0.08428546688000849,-0.20074067637083315,-0.06873020549539624,-0.10805534050243785,-0.09765771399855074,-0.11708126477802062,-4.304293223818847,-14.724867137892655,0.024445990668262963,-2.987308389894725,-2.8957324198717855,-11.890282867067615,-8.414519026668675
-1.9324451602322867,-2.0026999336738216,-0.9029922494578386,-1.8081592551683434,0.6070071396113752,1.1212680578784429,1.0052717145442773,0.3363972178050804,-3.1845190535179078,-1.383833824607201,1.5882916903586004,0.9208145411451596,0.049137906366449866,0.7994171704217707,-2.0162896618771837,0.69991324553765,0.6296657087629952,0.12484002578807506,1.1540409040970956
-0.8562646688412225,-0.44271862096733294,0.142224311817682,0.7176561561170491,-0.15705142360818053,-0.2845431926715333,1.2918541286041632,-0.5065603262119984,0.6414055285336476,0.7619578727099585,-0.8178452168238655,-0.7246060839343391,-0.9012538136099861,0.09144998396598457,0.7215349545579509,-0.9554261445779038,0.40430577065413886,0.03139551240864327,0.7271517567224848
2.0210250242994228,0.658160162459603,-2.8435242779600394,0.3774380441966287,-0.19306722293380632,-1.5036999115684442,1.138211632976361,0.6433556605730444,-0.47998508368652765,-0.48253879483033996,2.3712659385316037,1.7694519085464497,-0.7091100557472765,0.16618473107647683,0.3692430079095984,0.384025299524685,0.2524705761131583,0.06454439995124137,-0.03669929876286694
-0.8137128450971344,-1.2432833748210466,-0.5135029249869184,0.5640138047140428,0.4805222122331251,0.21952040738935488,1.0624403309759136,-1.3334771273256874,0.7810065922428406,0.9595515281825486,0.09303192958008501,-0.08852268365881834,1.0230852789439568,-0.6135399164053904,0.6363186853250634,0.6927590654966083,0.6255946135882497,0.22338360669441423,0.7808959299783103
0.8000302033846882,0.5263228515048419,0.3096134020413318,0.02119673384115267,-0.4469594285988237,1.0755051469221393,0.6850043270524899,-0.9040266161027334,0.7870624036338322,0.7800323423227492,-1.0134452074229963,-0.9850338647500242,0.012666894763637833,0.5855832919981797,-0.04686466343460097,0.8333594448991419,1.379953805595879,0.1265984605992591,0.8223652973180948
1.6795623636305763,-0.07513049121742238,-0.3093807941963881,-0.5609190670123252,0.8037275401779306,0.9343327451084229,0.4917315320883783,0.0879467225986191,0.20516947237745378,-0.027001870325682558,0.4824545852470711,0.8950175028061049,-0.19845977954802738,0.4787256256720871,-0.6338620712742007,-0.17878220437930417,0.22913488049516856,0.21835121958008946,0.09587243027007232
0.49589215632176886,0.29046231389059696,-0.1909926245937579,0.4248027385148383,0.7954278041108407,0.6321831822585904,0.1189436194046545,1.4911222034353875,0.454967227712068,0.38105427967632644,-1.7365988385196203,-1.680613499234563,0.33260261886638226,-0.5566995508819327,0.49297253364805593,-0.19881267693565194,-0.4728668659213938,-0.01472540377888456,0.06772268721408836
0.882115518284936,-1.3512161364013655,-0.19586117654287574,0.27271899846467423,0.22883041718571054,-1.924474488161063,1.09453791374407,0.9067974872120887,-3.149974305372729,-3.8442585039873176,0.07928398626798473,0.06979413877803559,0.4173684362038586,0.8542282513661146,0.17885616279315175,0.6330891563668821,-0.3888223380376877,0.20423983062985387,0.11374015882113173
0.7211369061940481,1.1666066614042963,0.2358397607553706,0.023225415640741674,-2.074632913816476,-1.7206692059568072,-0.062471611123653716,0.2566342460744672,-1.8641872795593497,-0.9323440248926902,-0.2774624370721107,-0.19689941681195128,-1.6482788125897643,-1.0796087573142752,0.1513773573149545,-0.19612786656830683,-0.2811576824473122,0.21835121958008946,-0.7346556464503301
-0.9837557851435381,0.7930089305274015,1.6955702428797979,-0.4653944368296127,0.5628327730172228,0.7041837345382641,0.6482353919483216,-1.006265734120411,0.292054333839368,0.09186978694678334,1.1080845164586974,1.1085451174259102,-1.6878102494862266,-1.098663243998989,-0.32132498334863563,0.8288448138909298,-0.037722781717472946,0.21835121958008946,-0.7341648487078843
0.6377990050801845,0.5517958459480916,0.33099697347777635,0.12683565969219768,0.31281989779409164,0.7624716225213569,-0.3887897984643519,-0.5510114131142014,0.9992666485582336,1.016345180609536,-1.221726385434449,-1.3527452909196813,1.1618786110629433,0.6691917037726446,0.0513822563883688,0.5506747268071782,0.7556917845367965,0.20423983062985387,0.24875482067231752
-1.943709690792197,1.0121527981859293,-0.982888762892245,0.8030006550695568,-0.42711656995146446,1.1695364504989478,0.19611740214915976,0.061366311151192,0.8048645370275688,0.8570700712816914,1.010679170686945,0.7890990786451192,0.04001962953056418,0.4977509367001479,0.7670051677868778,0.8549741976798327,0.15710141955036183,0.17189145881192397,-0.28412593977302913
0.9958867824391073,-0.7816447128573707,0.3747142830050868,-0.8424555440331183,-3.335168663677577,1.1470659450577658,0.9960075695280018,0.6993535886339979,0.7322967186558788,0.6670019290345899,-0.3277003462790363,-0.5505615431643173,-1.472063428364853,0.34333164793256254,-0.9030457419739774,0.7470507176901685,-0.5047319387111684,-0.055309196824292806,-0.10878250113019731
0.6403477501774052,0.5470539283199416,1.1983120733902866,-0.8667847640558177,0.7236179834527539,-2.449198470095965,-1.0072261292320102,-1.6419420486768943,0.6198664532214683,0.5724749366235962,-0.04903696938593096,0.04733330059880238,-1.010987731757179,0.7181341695918905,-0.994078043360501,-0.8530237606237591,-1.6144165880484604,0.16414221822463662,0.5778848503423677
-0.021249065663121253,0.44263558712371975,1.3847958216042926,-1.0845124925365686,-0.26761722292782203,-0.09451371422215586,-0.8736797473391379,0.002280295759255097,0.7591984172382231,0.7716797763382456,0.08117226013872876,0.45180191856118546,1.0013121903076132,0.037071861611634165,-1.09905623622535,0.5029040577886615,-1.046820264545988,0.16132180217639355,-0.28548660858576075
0.5387523427772327,0.8721942943535818,0.8473377019477942,0.2808061708139885,0.7906505129411228,-2.3300480802519385,-1.177474267178167,-1.8130161138711325,0.2852673257659789,0.33169952420035415,-0.37712535063478647,-0.7374219965921601,-0.18000782156218767,-1.3124278911354947,0.424299349471585,0.7113567346031701,1.1029268157499779,-0.01472540377888456,-0.0012055280945417397
-0.46960106452484524,-1.0402092127732563,-0.7812364945478518,0.21813855314364475,-1.4994194384566408,1.0596701161012836,-2.21479583530466,-0.02035417076550883,0.7583616459431373,0.8315215852778017,-0.15128069379347583,-0.40199139894688896,-0.3370005484635377,-0.676002764601258,0.30067171155001243,0.3173330214916911,-1.140191263277005,-0.01472540377888456,-0.8211712808408316
0.8420084348508112,-0.2242781247654213,0.596314975233936,0.2613022262013834,-0.9986414116719827,-2.039449246498056,0.6329265150049076,1.304796935699941,0.047772020257029674,-0.28807017549280794,-0.8001962361970758,-0.8910656158212371,0.428170640226188,-0.4979400416168195,0.3248119029143826,0.23591055677348424,0.9431392006451891,0.03139551240864327,1.0745026937833848
0.42685416008454025,-0.7269513129563042,-0.4808646882626884,-0.06479574765892862,-0.8581831611279639,0.36601965062739644,0.2622906712963213,0.14243548904991973,-0.12204899069072293,-0.23377236536440038,-0.8614116718505219,-0.9302049445946626,-1.4325100466117584,-1.1849646608007203,0.07679643795612068,0.054290014948120205,1.0353517834186745,-0.01472540377888456,-0.4761775876990678
0.8451563611419228,-1.0313817590292307,0.4600446763015365,-1.0279461343410947,0.09152024771396468,0.9509557756184823,0.11890644407414788,0.41953046120755316,0.8780790755913038,0.9528407580178824,-0.22407421908463834,-0.41610584297905145,0.5445545101945894,0.8131458289077094,-1.1825670168561255,0.3379054965500012,0.6604649259103683,0.13110349440717206,0.4444639025617642
-0.9582034985867649,1.993783049627911,0.1438767918623119,0.6190156347793778,0.32051717453747225,-0.20892072222125538,-0.4546181880151066,0.08431824687245962,0.2176512564463628,-0.024900144639549912,1.224295969376651,1.4715111337353635,-1.1581612421567582,-1.3521640205418402,0.7556576714934875,0.7113567346031701,1.0823044188216242,-0.01472540377888456,-0.09707637812772542
0.8060454598800403,-0.9386926939820381,-0.2681025147149336,1.0241733375415303,0.7672403687097457,0.7929386287092731,-1.5969820102643162,-1.5805586879585745,0.687299451935495,0.7236436724083334,-0.41363532872942355,-0.5669010565569145,1.298645908230559,1.192288538512418,0.9223719805640429,0.36272092210313145,0.8814483628985794,0.1265984605992591,0.4644538528499964
-1.0692369517744498,-0.5501650843334356,-0.204450610374491,-0.8926909201181483,-0.997366176493798,1.0403889994980138,0.31485861708323754,0.9297827389434581,0.08357733016823707,-0.34548144761042227,-0.43289560345535205,-0.3826011583355002,-2.7752707939091064,-0.4428260388651465,-0.8285869818614032,0.2780155298026764,0.934692029316947,0.20849467761746984,0.6357418160016666
0.40618553854543943,0.32820877110029006,-1.530354610221473,0.7979642799380418,0.8398436282227443,0.046626175090395384,1.1836607507674162,-0.5864729561446169,0.4810672360925641,0.45823441589926417,-0.04425754419696285,0.2986781732027976,0.43566726195250377,-0.8657966711177342,0.8896050434184383,-2.9937579550582725,-0.7807642898123289,-0.01472540377888456,-0.4769179981618735
0.24773193853432954,-1.4138881002652939,-1.7000175407072267,0.9595467510328392,-3.575134335850865,-0.7235863968099238,0.6045649823192016,-1.9688640427469204,0.6473547709392752,0.6691202665168116,0.8219090793942505,0.5238780621120273,-0.3319551436940263,0.44932718321258164,0.9316940368552092,-0.07632389807098021,-0.3286968186941637,0.16414221822463662,-0.5024812614596867
1.3474352358923358,1.3908090675922333,0.36228902378288774,-2.93752292680262,0.9500512745094201,-2.492000832205164,-0.12109132015976944,1.0253397525248331,0.9033914617946627,0.9095274076761722,0.7221635797549775,0.27098595373509915,-0.5350092065783685,-1.1450189628787093,-2.6786638292378373,-0.823281041666154,-1.4084256638761734,-0.01472540377888456,-0.8344845349761426
1.4497238063057298,1.212179720000962,0.9146304877094616,-9.57445286950917,0.7641602403549949,0.5530177410987849,0.9005661381387111,1.0145890602306604,0.08210132817541828,0.15086900557128502,0.9231714899138633,0.4203920947094116,-0.874053596158102,-1.4138671643098815,-7.946484299174549,0.32545593058740596,-0.07535081395876882,0.11712505581840998,0.07600847271446837
-2.062994088524163,-0.009053046438617277,1.4063148115526793,-0.07117316736292954,0.8300188689823655,0.12059903132046769,-0.9425307620047312,1.5437856335044617,0.5817099130407591,0.38166409634628257,1.2429822412231768,0.9252097328809469,-0.20635586435552675,0.4743801789570828,-0.12722292726337625,0.5922946884366752,0.49156884809298895,0.16414221822463662,-0.5077860034515814
0.5442258186087857,1.2901492230131708,-0.036585515668573,-0.5744348726411471,0.9009894212637394,0.7605222516569249,1.0783150886021562,-0.4804806119699306,0.7449794934238239,0.7130842379322223,-0.2117828157345757,0.062489535620117304,0.6950804511320686,0.4781760741686043,-0.6477835040781798,0.1439571785038158,-0.6570679067270057,0.22338360669441423,0.6522685115055402
0.1773337764385393,-1.1786963025235588,-0.5605671112576773,-0.2748007404199956,-0.9718626046594273,0.05580523636553134,0.0580636490282455,-1.1759116290402973,-0.23946307060749944,0.004296856025372182,-0.329847948221606,-0.18594554397515914,0.519347232598308,0.03448875972285949,-0.2759453060062597,-0.011502150239587656,-0.7494372664172075,0.03139551240864327,-0.19533919480120265
-0.2596309114592099,1.2927239345143287,-1.6548973215790672,0.6150291815937082,0.8178567785241774,-0.4954520319356115,-2.082430468612654,1.0163336017464795,0.25402500717193915,0.27606286784501705,0.7694834572306023,0.4652019791472304,0.7055541076427992,0.734742051571068,0.5482360911681146,0.434612979907178,1.214354035659418,0.12484002578807506,0.8999371763584783
-0.01838232198566873,0.37401095110016347,-0.13859410290178106,0.8086211494789336,0.7978054359446668,0.8375296349008903,1.0069131053647393,1.402931286229009,0.25663862265031506,0.09918333277055519,-2.055522951453595,-1.9661986341247077,-0.3740530285469337,-0.7600879876414318,0.8910940891918687,0.5277610057908134,0.8170029506855312,0.22338360669441423,0.45203147504070684
-0.7784508207227493,0.051100915121140206,0.24729682539769623,-2.2273489975981735,0.5657021578806941,-0.7402499079650152,-0.9470467800146815,1.393385097634682,0.3593697062426088,0.3656545302500886,-1.146092089477897,-0.8563304178417365,-2.13106891986954,1.241263783098405,-2.606006855683203,-0.16265188947583156,-0.24256018634189422,-0.6155182188085738,-0.723606590522175
0.9881510710185599,-0.4767049437407557,1.1630026165108855,1.210355507141493,-0.7857051229455755,1.1555859103888653,0.9682212711330601,1.234121687540586,0.2957468946009636,0.2801749053276108,0.2237046131337251,-0.03018682343612802,0.26599272916295164,0.0972906349699824,1.2181683102981207,0.7880886246932313,1.299222825433172,0.13110349440717206,0.45525588496754665
0.287602527532383,-0.19671445872650983,0.8690471322939396,-0.20748416426260285,-2.7234627910598177,-1.2429066346968445,-1.1622978139745195,-0.06743862997145061,-1.7387660756024417,-1.1960831166052404,-0.9244638277832904,-0.6879281260854273,0.5734879808659118,-0.7266759903160664,-0.1132568482795478,-4.306002343416956,-2.4627492347710622,0.20849467761746984,-0.049840716125337685
0.17057612529610094,0.2815701556423714,-0.6290707511489644,0.0558485817094781,0.8291380887479675,-0.09905044625380613,0.6813826287690561,0.24393311172043522,0.371547172246665,0.352206913138506,-1.403061854754479,-1.1488341250679222,-0.28016110051679805,0.13417772006286405,0.046628207710985775,0.772307443198862,-2.0302428255872207,0.16414221822463662,-0.5009184752923107
-0.4926411807623183,1.4163181098699733,0.9095210092281603,0.5285830310527575,0.47609320175369596,1.0049944656637542,-0.44964897086631644,-1.9964453530421935,-2.5166066831538587,-1.7480894199682169,0.44880435374107,0.32342923047369593,1.0227042822912629,0.8236705963388671,0.44849622008387363,0.5544493140845563,0.7179555076996225,0.22338360669441423,0.9873188075806666
-0.07905695437437144,0.8949545514761247,-0.9016854191248087,-2.8909093566810617,-1.2999713427837152,0.2888574838973929,-0.7555045763211833,-1.7318978719164342,-0.06951185047399043,-0.12089448244549446,-0.42207390293538044,-0.6595591566577315,0.9245923037095709,-0.753080058797962,-2.732702237983933,-0.4634061459682401,-2.3360064596672654,0.20849467761746984,0.1426539958177387
-0.0251860130741046,0.47745383954671655,-0.816049878055415,-1.168087170238032,0.2504922655853277,0.24867040843932492,-0.5593355273748485,-1.1511680088996334,0.7422564486603801,0.8243752403406966,-0.9760589130748396,-0.8077670261597769,0.9677265451930052,-0.07126003727524634,-1.1651896195270235,0.5840161462746002,0.9058962562171873,0.16132180217639355,0.7124348206558789
-0.26549739131924793,1.0423221824059794,1.355330552169918,0.5212750182536184,-0.8580377556476599,1.1741891657387078,-0.4454695230973597,-0.6334770718208828,0.4542740019533536,0.29161715096397023,0.47301016611721863,0.3884340848987587,0.06760462050934139,0.35297042472011103,0.4947745663128201,0.8771971950007269,1.2582368345456425,0.21835121958008946,-0.10608912957380323
0.17927383991266382,1.6558982125491035,1.7650109126587845,2.161251085454636,1.0843471129980693,1.042752041174297,-0.20175007236104323,1.1991766690586068,0.008533524111960908,-0.07161078303477106,1.6037004488919957,1.252532948774703,-0.7406035384064225,0.4771007045084982,2.150029690618844,0.23219281364744607,0.3057254187068849,0.13110349440717206,0.4655393678202195
-1.172516365515957,0.29105958123715425,1.30404827127619,0.4543042089568583,-0.003529291369445569,-0.7801004625300503,0.7265619902208729,-0.488185116946853,-1.3431117899317966,-3.8434133686008436,0.475014867108928,0.2776698234243531,0.16893953713833093,-0.2800723138662517,0.49446184066782684,-0.4638680660326007,0.18220941599265675,-0.20246137200921502,-0.39045205325882737
-0.6487468691341003,-2.2440048301125217,2.3301499304874818,-0.4197137182079443,0.505899691358305,0.6310658245273578,1.1147944869035817,-0.5316877422142428,-1.0842818445763451,-1.9340330163689639,2.598345346887192,2.390825771926648,-0.8031691089060351,0.8366935136586192,-0.5434106163996453,0.5373286455107078,1.3205072490000889,0.1265984605992591,0.8145752271682547
-1.5899003534451759,0.31538956096925774,-0.22438241904446551,0.8017755754265825,0.8448098519392285,1.056910611243012,-0.3843538933853595,0.7698733286657541,0.8174066976849015,0.9804336679334821,-0.01056814495721494,0.3546901366862712,-0.4941610229064788,1.794450578734935,0.6176225611727099,0.30349118244337825,-0.6067561183032032,-0.2981595859071291,-0.559120260286346
-1.4981417900929144,-0.6440586247910324,0.8695181576642207,-0.7130445609332487,0.8156738455602898,0.9653279232842051,0.5891630603199433,-1.7151876333562222,0.23375648199533283,0.13874336433324921,0.4258759804746025,0.23384652309144982,-0.6030721106273185,-0.6976571994893307,-0.6143702146754491,0.8704418244083169,-0.28174900521045193,0.20423983062985387,-0.3038867289679224
0.24408706766771474,0.027001329949429078,1.2056517690558077,0.10150957086984468,1.005336978615014,-0.29710653400887277,-1.7208608923788562,-1.7039734123614498,0.6303851263637873,0.6763025617488526,-0.3293112659193414,0.06340893214854637,0.738457979834033,-0.526303648467089,0.16931834914755126,-0.4634061459682401,-1.495830574440215,0.20849467761746984,0.25726982923973835
0.7905206623279163,-0.7684574797019943,-1.4391708770684895,0.8071947476731681,0.8512178608186393,0.6490756966587068,-1.3517749280059306,0.8592187430279817,0.2316803612239932,0.00658466811453925,0.3455942636495799,0.17232169555805085,-0.7710588579736856,-0.12929657374775652,0.8330514082943389,-1.016175821241095,0.4260674214665234,0.22338360669441423,0.6195701716953317
-1.3343315658126866,0.2617824851288304,0.43004547519121894,0.92044732290399,-1.1607508294705955,-0.14131776718286485,0.7225244098535301,-0.939489740370929,0.2822177923191651,0.04333252627350554,-0.2796341679658282,0.008877114505436772,0.8366223080437009,1.0739214746691175,0.8270978629317459,0.8512725857338963,0.09497813952018576,0.16414221822463662,1.1363342040319981
-0.181217281305957,0.7674808657471575,-0.8391597879013704,-0.3165726361320119,0.2431935846628547,0.8511652507750224,-0.7230217549094978,0.7733887958812916,0.5684622209880641,0.5368016569441436,-0.6124630736117527,-0.7672967875457116,-0.6224157156751406,0.9380660404967263,-0.45084040342359755,0.5577683398511865,1.432776550017848,0.1265984605992591,1.256573129600921
-1.2616274689721543,-2.698370153618652,-1.0863443841518445,-0.34632756038296536,-0.05617358608451755,0.9197983672169256,-1.074232706897118,-0.5212867267439079,1.0779850540183677,1.2239377499495605,1.7805330003272821,1.669783268575048,-0.2639923463103578,-0.8628847508289501,-0.23344479980064498,0.7901914055274604,1.858299592128383,0.22338360669441423,0.7204373363509696
-1.4995304328788686,-0.5050053046454385,-0.18855937893145922,0.3424860583576022,-0.5261326733489182,1.0147893408630242,-0.04468023635263863,1.1914422227591572,0.5863747725059618,0.5789386729958418,0.019244860604686203,0.23570226156588425,-0.8373612600801779,1.5175222488115587,0.16327631111443136,0.08997972646320569,-0.2630853759236334,0.20423983062985387,-0.7661767615045331
-2.4628026162296415,1.0162441931525343,0.2553722722964635,1.2437891102099652,0.42779195024092354,-2.6063513380713808,-0.07437641459421233,-0.4745592341966182,0.0018305990224927447,0.09010094917944723,1.1466192324097637,1.3479647298091662,1.373355424957901,0.46076613645126624,1.2201644612661426,-0.5071919054939565,-2.687381569342522,0.13110349440717206,0.5775709740218349
-0.680922028629708,0.6529633792110121,0.38056966361792804,0.5888988818836555,-0.18274619855217875,-2.6258823097974537,1.0306241307816884,-0.3227036550734216,-0.19746988067247634,-0.05036192468853088,-0.8690079097350067,-1.026936422454495,1.053764702302624,0.7374339927666541,0.5209477507109026,0.8355071187921906,-0.9831132213704638,0.13110349440717206,0.47760223973596555
-0.8856193307782422,0.12220723163087784,0.4140470895603004,-0.18469863187913646,0.3725822911123575,-1.198599556249455,0.8139644462468167,0.32093574902377586,-1.206899370494002,-0.75659656674306,-0.8895797884287177,-0.6758876226179654,0.40455386650462416,0.8726353860736799,-0.30196500711419155,0.6330891563668821,0.4430457388068268,0.20423983062985387,0.31332521457698054
-0.4250699482279308,-0.40653886478379525,0.4406060283227401,-0.8405889029090259,0.6076168116227368,-0.9236319828558349,0.19863163389252544,0.08288673237867882,-0.14205973854364357,-0.17577277583579265,-1.2060008350971372,-1.5062808222709703,-0.5380545547239872,-0.7111442352737728,-0.7378952921643545,-2.1104157715090563,-0.7059623303775777,0.20849467761746984,-0.08236874685352596
-0.6088546152532046,1.303493558139021,1.2475539818588446,1.1292921588840585,-1.3283040295855997,1.038826634521941,0.6449180854709395,0.8360077355093104,0.23810390379430496,0.20414034371675163,0.7107354688461902,0.15493474677092622,0.42515417326903576,0.7304642016599976,1.0780571239498136,0.8687527217733964,1.6822474937821645,0.200709873755665,0.038080222863956126
-0.6471983167012304,-0.760463336545693,-2.453776316016274,0.36112723977362937,-1.2838064525846133,0.4092198146366732,0.609768394613798,1.4281093205532964,0.2146075157628434,0.08472135214792514,1.2129065570713056,1.391225684486757,0.5123497573303294,-1.2221995049319803,0.4939191417143165,-0.8077272970718767,-0.6235964985885328,-0.01472540377888456,-0.6890026840738989
-0.7440135191135325,-0.9881523743409443,0.7409816033767241,-0.5038591943271152,-0.413291060954549,0.3607480851924771,0.6009069059724356,0.0918133235492253,-1.0508183838756884,-1.7124755654239483,-0.07342169054416225,-0.48584083449587406,0.20640117782224213,-1.1873690991879131,-0.34799631915822243,0.25498703272626766,1.2491511508672188,0.1841907028036666,-0.503613205570091
-1.114344547443541,-0.03222924582805415,0.9394351286574559,0.06531821948803423,0.4681455426700811,0.8466177711895294,0.7410534987286923,1.3241194715183215,0.6653442708254965,0.6866019996641216,-0.07355013562787678,-0.3134329553712379,-1.6621598218072937,0.6962620536753859,-0.016000706127425424,0.3992524205851742,0.672884866651736,-0.6155182188085738,-0.6407504849661619
-0.13554748665962302,-0.10220192592190955,-0.4219696436671274,-0.47010754524362197,-1.2113083790121724,1.013047719891542,-2.1375392022609843,1.238634747683262,0.7903877394247117,0.7694204996188845,-1.672716935947128,-1.557520224120257,-1.1813492201680993,-1.6215363094297557,-0.26591222540726633,0.08105914328527315,-0.37092944484524,0.1841907028036666,-0.5999665139815424
-0.459692565574728,0.35910283066756554,0.42895859576458656,-2.203144630055821,-0.8193399310270274,-1.141791815830122,-0.46250901164379027,-1.987257053955242,0.4598954663165223,0.2961851671884576,-1.3713488582658202,-1.4385395263158494,-2.7524138983839395,-0.49248097868773627,-2.1207040238435724,0.2160352705621208,-0.6668489261577223,0.03139551240864327,0.2920872668909473
0.8429474851844103,-0.06492586420456713,1.611152225090482,-2.8512859998138493,-2.134013916000553,-1.6064658070725715,0.6195209896586136,1.276793119788265,0.6548849280139634,0.6137761189857651,0.6987136855285531,0.9321816572017565,-5.199246295344866,-0.12751781902529136,-2.865156306347158,-0.5465624750072431,-0.9295447751721435,0.20849467761746984,0.7957559828869178
-1.4953237648064412,1.952383241694285,1.560098810913274,-0.2035777347186122,0.7429200245066009,1.0321431374010737,1.0770605101659356,-1.7701059362537317,0.2927595426684155,0.2389238833766992,2.097781878622732,1.3915335274830931,-0.9559735426695969,-1.23412100204949,-0.05239315931470231,0.6053544666982715,1.2158291556540133,0.22338360669441423,0.9840618830186402
-0.8031362279705421,0.1734619515107342,1.2677427851500733,-3.3604039636227228,-0.38916433627295177,-0.42365155278591204,0.8267095556262275,0.31459100303815096,0.6867890756348803,0.7090250149283396,0.1419464582491464,0.1988821985235083,0.25842100285752395,-0.290349263497941,-3.331996187325072,0.5840161462746002,0.17713100127323794,0.16132180217639355,0.7097686088964213
-1.7238957019553154,0.8773634703094892,-0.16094051543063542,0.37262875521293254,0.8929519469943498,1.068743144703579,-0.17996032889574948,0.3876079685009183,0.4107458534492152,0.36275269956049566,0.4056835090245782,0.5248960852043212,0.2588542553345507,0.8508768023191102,0.2832607631848202,0.36272092210313145,0.3480745363573896,0.1265984605992591,0.5157260930362622
0.38699980541995144,-0.3748647959580279,1.4363426481562422,0.37081322881339324,0.991529849813946,-0.04443651594922594,-0.23163458486165744,-1.2833858675955034,0.7336513376817684,0.7222578170062608,0.2482673677264449,0.5621851713437217,0.6555844162514629,-1.0061730470809056,0.4832852048676259,0.7901914055274604,1.7306732396879394,0.22338360669441423,0.6400110465934636
0.4533741783265745,0.9246459531737009,-1.3330478469654132,0.7597642059511113,0.1696501157725203,0.28066779651506674,1.1068188427280554,-0.5959306124454196,0.2119559833535014,0.3514296063925801,0.11579521092830523,0.020277024970249413,1.5466505956433658,1.321918572552886,0.6308732395084559,0.5373286455107078,0.6052602811391375,0.1265984605992591,0.6153194793020086
-0.06826495970202513,-0.8925458568844938,-0.2569822799407073,-0.3540065726858155,0.9078279178060363,0.8065962641958108,0.6416626906539052,-1.5801527963806812,0.2316723642569998,-0.13363399267833578,-0.8838637412854301,-0.6437902825580067,-0.42358299399484645,0.808021548259457,-0.46981203390358356,0.7790775804402391,-0.44332361300032164,0.16414221822463662,0.9564559910697676
0.5824907048151555,0.7426122710584498,-0.4757066552805152,0.5939688180890357,0.07662361883938212,0.7211856997683901,1.0964366517589834,0.18840974405312055,-0.0794002578867161,-0.0625828493571265,-0.8615277177795568,-1.1190188411133009,-0.20949345120223242,0.4114190336982106,0.5625606685862342,-1.3143621610149785,0.18980274659061605,0.21835121958008946,0.22104656770154751
-0.3469233114660553,0.31960557186656646,0.24036308862182026,0.3287902169106968,0.5123694968144148,-0.6501952361143882,0.38674470332305366,1.3774868283936528,0.24519881794234388,0.20058062753687989,-1.7431674397903294,-1.6627301314827723,-0.21997915088007894,0.27908777383624134,0.306917868738886,0.1939454949288183,0.8067862896552765,0.20849467761746984,0.7010089581161983
-1.6306964016056622,-0.8189895142003297,-0.3537685559533745,-0.6200151490667517,0.8207507180671721,0.016321156485598717,0.4222036307325555,-1.2169927400899951,-0.6271999415072991,-1.0153359541196154,0.38358403112491524,0.4072812759036051,0.7615079796392271,0.6681266670050876,-0.7261333602815486,0.5773144919355417,-2.2843277517781466,0.13110349440717206,0.34446840807834955
0.11391302632856305,0.8793779008668263,1.2134355100569054,-0.10019985742868265,-1.3302832488893042,0.9014570302239919,0.09875719174021784,0.9317996781081003,-0.21896855609095434,-0.06636828654358584,0.05015480124391818,0.08044281634083665,-0.5344168675639296,0.373087859170545,-0.1434044226328745,-0.5071919054939565,-0.4642569336726451,0.13110349440717206,0.7876049119425359
0.19843321190239138,2.2169939322516767,1.620165519222136,-0.10549693268544726,0.5472142358916009,-0.4577827008426516,1.1035563202946912,0.42053583924540816,0.8410188997284873,0.8960305017608977,2.0868903894006436,1.8970674600167012,0.9936145797689171,1.9402771409774346,-0.38930974874725666,-0.7085571601883526,-1.131946858513555,-0.2981595859071291,-0.38616427314881574
-0.06304369754634652,0.1705798599508111,0.6097754465059386,0.594497858043721,1.0014998510401603,-2.8425608468034524,-1.0077938842242748,-1.4020778420889568,-0.3429914984296019,-0.5756565264969269,-1.5436982012059752,-1.2879137660681028,-0.5442178951286402,-0.5868683458016419,0.6639877500921787,0.5787964146810942,-0.31214839784932125,0.20423983062985387,-0.5063357898868976
0.9492147515227266,0.7903334881206522,0.6868909481298722,0.05524361385886741,0.3029226511657059,0.3749240336557844,0.6378981067032523,0.9342709909643898,0.3473333563300131,0.4190149666358918,-0.25794039112886535,-0.6531946120887382,0.5550912209755121,1.4649078982816643,-0.13673516687671447,-3.9805095257753136,-4.94443639581542,0.20423983062985387,-0.8015771267912147
1.519134094931983,-0.9417131123768873,0.9331597881446007,0.9539473364420692,0.29365309705410064,0.15416793698083534,0.10253954112220685,0.10096523120059345,0.5897469651716847,0.5081791505538387,0.8489466525760054,0.5648627859973664,-0.23394839318950883,0.3319509526586958,0.9373696214654331,-0.4118608431347041,-1.0550391173595923,0.16414221822463662,0.42958288990224236
-2.237478955163182,0.09283472880227413,-0.28323333081251706,-0.40466688158768466,0.11977854656798032,-1.3399744129833562,1.0189972343972966,0.6337277732804035,0.11099336157327012,0.09108452643850233,0.663236605445725,1.1157813895559492,-0.15791443043830922,-1.4682324824258735,-0.22034796776459134,-0.4954505361480748,0.22598774738438893,0.1841907028036666,-0.3006523184233241
0.21773896360984313,0.9883233317435653,1.1004568419407366,-0.4318648645378941,0.6879255222137087,-1.4930362158675647,1.0804921777384895,-1.9962990871715545,-3.1845190535179078,-3.8442585039873176,-0.006111124994152755,-0.1682619556780481,0.4244042992259492,0.28877995314446336,-0.4718371699450011,0.772307443198862,-1.8946259073600333,0.16414221822463662,-0.08322430317213671
-0.8177082444956812,0.09329457962161551,0.021598108201695165,-1.2430229078159067,0.045840189661272554,0.28099839178402064,0.7639564587395796,0.8365411417880667,0.6177317138655606,0.5604501839051244,-1.130137158854182,-0.7894003657437593,-0.12328365227166434,-1.0154351824910866,-1.085613923789603,-0.8077272970718767,-0.10718816015414782,-0.01472540377888456,-0.6232119072281467
0.2812189426906902,0.03139476868830762,-0.7346983548406089,-1.7399541702196508,-1.088948286159023,0.8246587623809583,-2.07437281633896,0.46101614430217314,0.6551465011623481,0.7803854574778593,-1.2345572682170174,-0.9531148613880085,-0.10513898631206231,0.5517935077596078,-1.8833024087989427,0.8724781896809247,0.8390642501277732,0.20849467761746984,0.2908524080735101
0.012421682056269803,0.20774980827650363,-0.3421505281990443,0.7501255114490801,1.0427516881275258,0.48481571579943744,-0.4222715600635447,0.15144701944589933,0.7149851501635357,0.8251112009732221,-1.9431933564512214,-1.7246392913950328,-2.563275260406579,0.5489315306212611,0.707539481228879,-0.7688941301857924,-0.044841207930760414,0.16132180217639355,-0.008702624211424679
-0.8638762219863899,-0.2734153465442805,0.5071393048239148,0.4976315296675763,0.9360907861054165,-0.09383848375146626,0.9093374203000765,1.350437221444134,0.31269717367818267,0.3757169550751714,-0.7364687254577226,-0.7119231952659695,0.8156457925437002,0.8626321569377114,0.41173205195868373,0.5544493140845563,0.4261915628045529,0.22338360669441423,0.947827698985839
0.8036988500747124,-0.06916549945873272,-0.30820013437967275,0.9707727988809768,0.1840134748792682,-2.4096263637243407,-0.17556254751568712,-1.777616387619621,-0.05600902081219908,-0.061189966086877275,-1.1248257113787197,-0.9768026973569011,0.6934151494658976,0.8422722461091816,0.9037555995671572,0.69991324553765,-0.07128170760777125,0.12484002578807506,1.0712107195010105
-0.26356562893617663,0.7532923033407538,0.031145713195641675,-0.17698739653351234,0.5215189576055573,-0.8449569252321906,-0.763770471115408,0.02544504689312998,0.5776234706333,0.5092353661167338,-1.2609804106673357,-1.0951399250909153,0.7353323303106353,0.766620474863395,-0.2781772219297334,-0.1370079296182681,0.21536731943277532,-0.055309196824292806,0.03994526022222306
0.08719756507016056,0.7140999676701779,-0.17092881729195383,0.7905376749054435,0.8224256652820138,0.46212475187233937,0.782599819739066,-1.352176132279668,0.6040035331024878,0.581781026796127,-1.4205374568114826,-1.1829433482574483,0.22033053416046613,-0.3045359197006719,0.8326840221069662,-0.09679142909253305,0.47351973964649013,0.03139551240864327,1.1743200674776826
1.1432385472869404,0.562594989313048,-0.9107448509576995,0.70860257933355,-0.27074237696559783,1.1373453276104033,-1.7152507717063472,0.8845652359309631,-3.121424091276007,-1.5357580704761038,0.033062738803283066,-0.2300669348067508,1.2225244433617157,0.141941414746756,0.7073160421254377,0.7000516615622386,0.7782951317126153,0.22338360669441423,0.9089350366906801
0.07881493657381818,-1.3336068705195454,-1.0798570395700855,0.903906881834046,-2.6269560788782567,-0.4084893872296204,-2.2641344144745377,1.2417378563132397,0.25515016198832624,0.09743248516790869,0.23476903996345444,0.04433814322664703,0.5725917977927126,1.057812415119905,0.811646192275614,0.7974446956258798,0.503401370124454,0.051108990237659094,-0.05226741852028523
-0.7407167907553297,0.7547933169807437,-2.8359705217753843,1.391763054092695,-1.4483441392560927,0.8685360437388304,0.9279281630216271,-0.02178420994057406,0.548302668506901,0.45920525788382194,1.4980398604194944,1.7625081207444342,1.0732831412210222,0.5379595851000981,1.3640471413557136,0.7528854983621552,1.1752492356610102,0.16414221822463662,0.7425958351757004
-0.7606212748531971,0.7637866037928487,1.1928150438315883,-2.1471699054802573,-0.6527755673760793,-1.6744836533111178,0.647903694986763,1.096547321792705,0.5313530535439991,0.6840405700404428,0.2244421005920105,0.035284933872897654,-1.184756032370311,0.08707395692885374,-2.1988258057291263,-0.5420323899424411,-0.9193803913777605,0.16132180217639355,-0.18512272737852603
0.05281644656612842,0.2639675605255398,1.474023128659501,0.7899045052620737,0.07552415920814554,-1.6081905353612616,-0.8063731678177062,1.3547933852815521,-1.310423508692658,-2.0006054289101423,0.2009612952380132,0.6424994974329398,0.021048209946814667,-0.5032039600552535,0.8500838895887795,-1.2232337728277325,-1.7119058176636486,0.03139551240864327,0.3117636165055443
0.5260286035418521,-1.0543488325133201,-1.7418173019800554,-0.050550114814818484,-0.4047803302686209,1.0078302180672558,1.0180296557381063,0.01522334973951108,-0.5479664070623897,-0.5918014589836326,0.6686615525881764,0.5774780589641848,-1.2705033702903823,-1.190836743323863,0.09122365799223085,0.3173330214916911,1.3180381330056805,-0.01472540377888456,-0.4557426499059541
-0.42472502601616163,-0.9263259465075803,0.9872025971122863,0.19943113380970348,-0.1337691459640139,0.11344942537393886,1.1623464898325173,1.191922959250663,0.4591762801252958,0.30601580402190665,-0.04862846307986067,-0.42081846880111606,0.4519248663326378,1.639217335613544,-0.007943803046909238,0.20885045334041086,1.1946947480806214,0.07552265653932526,-0.44241713570917995
1.7323802152888692,-1.4470824660643875,0.18474551697091218,0.822711614702783,0.6031768121366697,0.756404770386278,0.47449957956647926,1.4845005024388045,0.017074651864157523,-0.0007259739167786322,1.1551758497365041,1.0026033538730952,0.8692006911178007,0.11979888369595479,0.824883531493131,0.5177439526496852,0.6129051599777793,0.17189145881192397,-0.29161028417591583
-0.04963839932915416,0.7283323891231931,0.7934109733588078,-0.43033748443648234,0.9242769668669265,0.10646992995847371,-1.449590523864738,-0.5423384551269486,0.636278436079872,0.7408326399877636,-0.7592185023277049,-0.8609397737352381,0.6230091442078401,0.3644048270454465,-0.48146049779389266,0.4553256452950298,0.7686454032150345,0.06454439995124137,0.4974823539968887
0.137473256567634,0.5457175083590391,-1.721013591078318,1.0610696026525575,-1.4896321722437718,-2.4221368509881245,-0.883928741858267,0.8357490432629084,0.7177614739679065,0.6988238374387982,0.20543287368152877,0.550891543233457,0.49466708604312426,1.6425163232729654,0.9115846017808686,-1.5553438825399155,-0.36217906313664383,-0.2981595859071291,-0.7548900875895976
-0.6622758569794505,-0.22358162570408502,0.6456429575917378,0.7765309308800994,0.4040612521551686,1.0763349388448875,0.5400825741515695,0.5128639530564666,-0.08281125693580794,-0.4902563222260224,-0.8503632483066289,-1.0602788705214117,1.0886568455574774,0.7384358936490857,0.7144120517035578,0.4005555314849598,0.33608511091536303,0.1265984605992591,0.7474567392577983
-0.300750941336504,1.2290502977103637,-0.7399962691338204,0.05968271605655539,0.10265920695329823,0.1523783578535468,-1.368902967545969,-0.11371791181893637,0.7450526305312455,0.7343894491990488,-0.034637192878456846,-0.06530180618621387,0.8114539485284746,-0.3936902451274069,0.11294076484789763,-0.14210773099050522,-0.7241562171542931,-0.01472540377888456,0.136332280135274
-2.1467666672742984,-0.8971331312251066,-0.9334865924033183,1.1321393328940277,-1.1520720849871422,-1.9522929425046918,0.12954514789048796,0.8204817120099384,0.3166166557578738,-0.03511621893038218,1.1082032585128787,1.017932772555179,-1.0440797188042337,-0.21132356368250196,1.1658444795785126,0.6771965264729279,-0.36830608602728604,0.21835121958008946,-0.0016098713406917063
1.7581669185017221,-1.2796121684637045,0.9223757788819223,0.18389799265510262,0.7793754368576377,1.0617289933728025,1.2613860620398434,0.1807440502452717,0.20364081108864535,0.22215149258606345,1.3374614037911987,1.0549344330973625,-2.4630804837049993,-0.28444275539686853,0.2246315029448199,0.32764906795949156,0.2716712177964844,0.16132180217639355,0.17501521262447478
0.023984199892041563,-0.5552402432793286,-2.130436442757861,0.4228778944236843,0.7200527815822334,0.6765031169643274,0.895423218222205,-0.18892939120482574,0.7418204318942735,0.7832828254940366,0.6970079956499126,1.0433984660731281,-1.2707786785686184,-0.9225316856931887,0.5263869771207585,0.6558315879756929,1.7413911972705334,-0.01472540377888456,-0.40507292031660685
0.9642276013208618,0.5307764976506649,1.1968935962934852,1.0067723565051423,-2.282476009299668,-0.4548386767693582,0.8927420977154793,-1.3145389160742285,0.45403199470377004,0.5004276320211709,0.20558772066341552,0.04422499424789122,0.6209240558335433,0.16504552511815712,1.0066290341391793,-2.4837033801320594,-1.7459039774950567,0.03139551240864327,-0.1385968233572307
-0.16274402111985556,0.17197513945079124,0.0020413589795663834,-0.0676796687301035,-0.5866445314632742,0.6849984845395136,1.0533953617500804,0.6933859608907874,0.5860787130012577,0.520769231922898,-2.256559789171191,-2.0522623010987844,-0.26235076834822535,-0.5490990878990317,0.004185891312169199,-1.366999793659426,0.21328639546500827,0.21835121958008946,-0.729992647464149
0.07686976385944803,0.5619317799471971,0.7641285197266164,-0.15017153195261126,1.0094603383560747,0.7187394451615575,-0.04679515627676419,-1.6535059524920852,-1.746761507210855,-2.4232450041422893,-1.0071481757189857,-0.9283582273820647,-0.838444472420409,1.5004424133893692,-0.36365657882961294,0.30349118244337825,-0.4256385549837203,-0.2981595859071291,-0.6239883454264175
0.6977359230326925,-1.6566492614923174,-1.0406744759402453,-0.8009225604557623,-1.9824684175954013,1.0123968064373405,-0.3626462744923112,0.3775209055968448,0.6644789110073844,0.6802177597203921,0.661180579211744,0.48967376467509977,-0.7465017156436621,-1.1755375822758012,-0.6362165528596064,0.4276569046198108,0.8511931095393995,-0.01472540377888456,-0.10954235511609278
0.22783363555736497,-0.8750476102210573,0.9793120139950712,0.6679407401625256,0.5580700804277113,-0.09210538636649016,0.5060472352186304,-0.8132092792158632,0.6138903860863787,0.6578120146454003,-0.22977068134442546,-0.43853926019352807,0.7536827913450228,0.6844133343662595,0.6084434485208238,-0.5959609981295942,-0.01627244756242794,0.1265984605992591,0.6591967240389095
1.5608197536199169,-0.756673383346441,0.21457669686539113,1.6489825491102355,0.9606708913860276,0.3353714927784096,0.08219048319713632,1.4885906254855277,0.5058115436378724,0.4694472164978355,0.47781700055075405,0.6511483626220389,1.361268854318134,1.1062401167772904,1.5785763904697692,0.4005555314849598,0.9066972310119089,0.1265984605992591,0.8564372994506756
2.6579353457989727,0.7890072536716385,0.12809756834678462,-1.2141500476919271,-1.423179150543845,0.5500127309681913,0.8663766074669781,-1.1435778313127871,0.8391785339490567,0.7269325473513989,2.275320682927048,2.809173945250069,-3.1607255903468414,-0.4150325809733743,-1.1528837727748724,0.4929403423428218,0.1817091697758052,0.20849467761746984,0.9097520121578189
-0.0347160973189238,0.5117392246742479,0.9641077933301396,0.4906560612051574,0.6480381335360967,-0.9143638036599537,-2.1602936836445648,0.9308475593765114,0.7179283779812217,0.7266655361922939,-0.6755745938944502,-0.47273181309266227,0.20479471828810106,-0.5463737700397286,0.5572304052954475,-1.366999793659426,0.11465825011816122,0.21835121958008946,-0.8061284580497144
0.4997050816993887,0.8071303865233226,-0.2354417806654056,0.8137700446919337,-2.182600334081692,-0.11610680894661475,0.4981979294365467,-1.6005461867975368,-0.1615577609350421,-0.24781768244805918,-1.0177357872389783,-0.9753043083239042,1.499922163613767,2.0465749023981092,0.5981569516460635,0.4678587784665911,0.29111873777774927,-0.2981595859071291,-0.5944870657705793
0.21296345768252734,0.8365712245873289,-0.6545780832923233,0.7303912814249395,-0.623394613511157,1.1020501743003883,-1.383000203954343,1.4775004789805608,0.252866071847122,0.3333945284187986,-0.7684324158680572,-0.9101482551821716,-0.8041286631140541,-0.8077595029075929,0.8181336348759161,0.5277610057908134,0.4588414616514894,0.22338360669441423,0.4892120118725628
-0.1958829453222491,0.5123166158332204,-0.5871390498488661,-0.5909311938092351,-3.334771313759732,-1.150295792182973,-0.6231784194392851,-1.0015114358212378,-1.6398188557048727,-2.5045360133603762,-1.1911848477647715,-1.228829001042176,-0.9647292927454606,-0.35689838814810926,-0.540379850206446,-1.2782577280048353,-1.1207779406685643,0.03139551240864327,0.3372675828229791
0.9025131893377616,-0.10652589900538555,2.1906114465722024,1.1717768072185413,0.4570375304945621,-1.5746683857122055,0.2193582405411434,-0.4367025480879905,-3.1845190535179078,-3.8442585039873176,1.7200237344268214,2.115017471807018,1.4586185638488314,2.062352270195292,0.9812369016815373,0.4863681288527783,-0.9250431815183123,-0.2981595859071291,-0.35999800496495576
-0.7223187380208427,-1.1419614561990992,-2.1064910557742813,1.093601200030895,1.035429642381148,-0.3013273202358299,0.9792503793754238,1.444815485842921,-3.1845190535179078,-2.1563712882390464,1.1442421734865795,1.0162788131039933,1.460998559410243,0.06024710933864825,1.1037289912908095,0.5029040577886615,-0.3506600438785994,0.16132180217639355,-0.1668319169313014
-1.6040752970970251,0.49548091380677756,0.7960673735052142,-0.7152534652146779,0.6263064229319185,0.928737950958874,0.9938489502544563,-1.823253235573912,0.1172335332808806,0.24262287584810038,0.330571894944466,0.3730413215294932,-2.377797250315827,-1.690432967129863,-0.4908302506689286,0.08105914328527315,-0.7702510563189237,0.1841907028036666,-0.4364582647199285
1.272566822992624,-2.096545910631039,1.820502446742091,0.7741861971414014,0.7564750664506058,0.21543249960832841,-0.613276717923505,-1.9912392721961443,-3.1845190535179078,-3.8442585039873176,2.1205106209362548,1.3669096900316895,0.7778749069445776,0.9203085708434345,0.6920643475561489,0.5544493140845563,-0.38017578012419423,0.22338360669441423,0.8038429324999752
-0.21576120254271153,0.42116974332874707,-0.2055712271507119,0.7304088563631825,0.8772584084047383,0.24498335375440652,0.6028664520988791,-0.7558900618362707,0.07327193903743763,0.08214435625076678,-1.7406008852098527,-1.8551895604684352,0.03846618430302335,0.30500681586918377,0.7128407777603125,0.384025299524685,0.5332152966733037,0.06454439995124137,-0.03619250955439788
-1.2042724396242521,-2.180141429700435,2.581679939648112,0.7939969817680098,0.8973051465155478,-0.5672193581871029,-0.5478806864162569,-0.1477541427989665,0.6639314479958001,0.6755906394280008,3.023714037168715,2.8800590970551787,1.3321209156943747,1.216308117971346,0.6791714899433573,0.7974446956258798,-0.33444646075607176,0.051108990237659094,-0.057955979302591464
1.1026492834791162,1.2259024741400042,2.709675341877898,-1.2342414210261783,1.0489141416998762,0.5439003865642416,-0.552156933939691,1.443948354249186,0.38344843975957377,0.31106024977078156,2.8725928246930246,3.1253087338339935,-0.5831499646504099,-0.2169091024527283,-1.2066814347609953,0.8090445786758599,0.8254713060080274,0.20423983062985387,-0.0641983838931605
-0.7205480576761379,1.454848931774564,-0.10321689016382443,-1.7604066097216755,0.1609585318575271,0.8065240702678745,1.043977362642978,-1.7490647435467572,0.10269157666953661,-0.19920746148522667,0.25448495455924847,0.4023480441091072,-0.7804539787268779,-0.37583203244895025,-1.7046882142047795,0.7144887310652983,0.5116341601906148,0.17189145881192397,-0.782869586452841
-0.9990748377747561,0.10490257529084011,0.5346046685879136,1.0187765868837744,1.0745649197899925,-0.40577311797792803,0.6027733015154378,0.02269068252503535,-0.7114799050099115,-1.2845624912560114,-0.6438834048991549,-0.49239891706102995,-0.021969166111898968,0.272947589481944,1.0087622913889909,-0.4292873957920923,-0.43622818452236234,0.16132180217639355,-0.234464733567943
0.127240078470632,-0.6300699059812064,1.1605185327423309,-0.4281474198147546,-2.4560023207213,-0.21319238127501128,0.5753325886665625,0.9346828645194403,0.2650823444377664,0.3978503414912107,-0.15219695967989158,-0.03565205655519708,0.3187056525305264,0.9490977038533226,-0.5705426839204094,-0.47435241673770046,-0.09512161969824592,0.13110349440717206,0.4751838452290213
1.191881483295506,-1.186485994538902,-0.5667112073806636,-0.05434449066689448,-0.10998696903210933,0.06718675915246221,-0.17264583313577442,0.6365776526470381,1.0294645837417125,1.1017836085205897,0.39205516230528376,-0.12541018730948414,0.9953595658847092,0.7588246770211177,-0.14907486065847442,0.8325212837698654,1.3980151524105606,0.22338360669441423,1.025417983727777
-0.9081570062195495,0.07196499659245058,-1.6853705282053486,1.4296937799162268,0.36862558969869097,-0.286176924217454,1.3162941759892806,-0.30379533198259073,-0.26809149823601747,-0.26473429143276717,0.43763097074837015,0.5049244935199957,1.151998852698974,1.1684240422863181,1.3462510818674427,0.36272092210313145,0.5205957709398112,0.1265984605992591,0.47696870323504514
0.07408093043705928,0.34705935145286776,-1.1476569966801484,0.6451168348387892,0.012549902319798925,-0.5370366284525392,-1.0365305460286154,0.6585845926570062,0.1909457871086797,0.07414593340402097,-0.5932064139232791,-0.2590971209289884,-1.9768053764038716,-0.35225769613899655,0.6920784306527018,0.2160352705621208,-0.828528753873655,0.03139551240864327,0.25746798681705146
1.5673059549298327,-0.09121497927859938,-0.2702934602100179,0.010673994877148521,-0.05001950190940138,-1.3395042695708224,1.1052453542284382,0.1635334393761702,0.6563444054537424,0.6583269300558573,0.2686611905815579,0.6645423500307983,-0.16869619396246655,-0.2194923667927045,0.04377985704936045,0.4230381870675751,-0.9643868884050297,0.22338360669441423,0.6273157241662377
-0.42651161791829445,1.801694977234157,-0.5665035564505276,0.2098002011497764,1.0104996334019236,-0.8957013937268254,-2.222685927096134,-0.8273792570089453,0.011194968019853035,-0.24494366587047675,0.8209639106496798,1.0975256432253284,0.40558504879573454,1.5762362479135932,0.012592497054826204,-1.5553438825399155,-0.5043000650667891,-0.2981595859071291,-0.8089308484889293
0.3767400006544572,-1.1751521814508556,-0.6671879744708658,0.7724367196551716,0.11652638196645515,-1.110791181095994,-0.935479320325051,-1.334447334591623,0.5469903435142425,0.6030256194607801,-0.21191215808906105,-0.1913514546945202,1.0032711020892686,-1.003674045027128,0.876152647323169,0.7901914055274604,1.348270702301072,0.22338360669441423,0.6696657652574963
-1.9994264889959104,-0.5947132308574828,-0.13977196961446706,1.7140297308975037,0.8082172898121075,0.3694471332895044,-1.092688147282922,0.14639513089383835,0.9399686959526058,0.9500954722516564,0.5650497576643707,0.8532851228276003,1.4178324160948172,-0.21963768950941542,1.7481910776978498,-0.022328968379538044,-0.8612142192596389,0.20849467761746984,0.584246588340976
-0.3560874630144812,-0.11733001210120024,-0.14940174659723574,-1.8800571653558737,-0.7571949728658274,0.9591535072152215,-0.10230406110379929,0.900666826336003,1.048197015680163,1.1438135166016974,-1.741018463492704,-1.644123003993921,0.5111359041016907,-0.34968359828549056,-1.8295529032796973,-0.19881267693565194,0.07725964320168482,-0.01472540377888456,0.11156992992429636
0.16519068778825716,1.3281838669261452,-0.341046049487517,-0.7296778741387254,0.5994251848676858,-0.22555097675517094,-0.5881336238693547,-0.981566926894369,0.20685506184159566,0.17229894178380747,-0.18130643992232237,0.14156504671314385,0.6392054594112603,1.0522585966401097,-0.9094630315953229,0.3363738575492587,-0.5213083163686552,-0.055309196824292806,-0.09275427779806418
-1.0774515135583187,-0.9821341395104797,-1.4142113415404551,-0.16650582528151964,-1.173646037887996,-1.0675074359943502,0.4315319696040837,1.4149319819260722,-0.04847717597889222,-0.06164019930678778,0.6835864638019912,0.13705369652648325,-0.8281555015403075,1.759240552911429,-0.4250214485527775,0.30349118244337825,-0.5356995881458334,-0.2981595859071291,-0.759770331376187
-0.8246407049932356,-0.5448105636776975,0.2206611340370648,-0.7927986016581297,-0.7364350872792897,0.678912116739962,-0.9754369701521047,0.21981307841453568,0.8266473250039217,0.8042288684641685,-0.7511197552604484,-0.7776822085590513,0.405234739961926,0.13485703513631356,-0.8176993114481278,0.5400714131831397,0.8283350200263645,0.13110349440717206,0.5326689981827702
0.5727714402870883,-0.4987060179660299,-0.2708132959202472,-0.7106324632916088,0.8341323933973562,0.9031062501749602,1.2903372795017827,-0.42572847460379887,0.30966979314576887,0.250575885663083,-1.1735628393832915,-1.3543137212874268,-1.680956290623983,0.6091960924603452,-0.8110441377434952,-0.35488071762850604,1.213477071691244,0.1265984605992591,1.0561541697096928
0.9199755003992739,1.9147945260358399,-1.9547856016282599,0.2722488007102859,0.6880265377899224,0.7243703567630959,-0.04614508952372675,1.2068041381598036,0.7566800989137215,0.7817122673104052,1.8287530965681078,1.318624429184861,0.428516196734837,0.03722700509922224,0.2772934971524234,0.5856139334838983,-0.6678734742958656,0.21835121958008946,0.16098247190315348
-1.9206261064529886,-1.7636046330257193,0.017435417110508382,0.32787725922665695,0.8715035213274464,1.0702320372958998,0.4539073711763481,0.0364355162516842,0.6813449911313422,0.6786059293716364,1.2102258012141929,0.762186781433859,0.5352504320635458,0.3926270485169531,0.292715286833708,0.5506747268071782,0.5820035150610159,0.20423983062985387,0.18731860087461616
1.1054591500917088,-0.6177866273054725,0.7635562409078411,0.7973621141222843,0.7756821801694841,0.7299420169562897,1.0068571626314942,0.9039556140306246,0.2897225450514225,0.29454952982694604,-0.030617030314951946,-0.31173648445413477,0.7479656904113491,0.539127078900161,0.7569454858711906,0.7867394617931636,1.2228210866304836,0.13110349440717206,0.7605706477945656
0.13905365121780913,0.17489237266237143,1.2912502790648022,1.0609080458869566,0.7211579142234339,0.636631297146776,0.5639133473755606,1.4686623102612184,0.5789881152856919,0.47663582670758575,-0.16966017512004455,0.2499319619014743,-0.035280877444684486,-0.15320415162395448,1.0895738753134208,-1.0368753346270496,-0.6860037545991192,0.17189145881192397,-0.6356839034999275
0.7842595540581306,-0.1823002466757575,0.052638175180390295,0.1270171707090036,1.0051126731400157,-0.785750164642579,0.3883761939455604,-1.9100596431134844,0.6751417313267551,0.756036513429903,-1.2550932530582175,-1.0204592708692226,0.21483917760376242,-0.35365458177636805,0.17554780298545045,-0.09679142909253305,-1.1406676006099696,0.03139551240864327,0.8694796294510481
0.4208395092520724,-3.132118213250567,-0.03387799976269735,-1.4078030442717995,-1.2993336904231518,1.0539829745304916,0.45727716408925806,0.6798292758964611,0.014167313177674968,0.10313388720840155,1.529897760695228,2.071583417766134,-0.0353458616289228,0.7849496008276473,-1.5820075438050527,0.2887867663766799,1.2159608002535298,0.051108990237659094,0.2500635760384263
-0.8357904707475893,1.568791817663807,0.58829875670369,-3.087624911982664,0.4324299126838605,0.8842416918503242,-1.6843279948336602,-0.0036391479837950065,0.42227739800124564,0.423949012870372,0.6175090425054361,0.6336900175633459,0.0742530974627085,0.8158512056207692,-3.435462560840193,-0.28789544952929647,-0.4536119510886377,0.20423983062985387,0.3504140243277631
1.8542317901900063,0.6906993989358989,-0.00766462308553712,-0.3924390148275853,0.08713845383059339,-0.43766627128697966,-1.880498020369734,0.547568700747124,0.7174221564963412,0.8018119890049799,0.8755362332976115,1.2487863591566637,0.48172737032793544,-0.5731172922961751,-0.3144452698589675,-0.022328968379538044,-0.6212062881027742,0.20849467761746984,0.4496991785906913
-0.21189794898462241,0.9180598310892417,0.17334498224334363,1.894722091576558,0.40824599512980997,0.43035536377635747,1.268419709939843,0.6754838041284532,0.9376959437959872,1.0384591068321813,-0.9759028825960534,-0.7311556282601,0.14774227304493984,1.0670955575792982,1.8348863333272953,0.4326889738621731,1.0359494796591806,0.1265984605992591,0.8252491000533063
1.5585397124036497,0.454180871708909,-0.1699150935274056,1.3780925963237551,0.502255757068832,0.6202788724607772,0.40865284156793635,-0.03462525441666473,0.5742532209833098,0.4955775606839566,0.27474353004116525,0.6464380549109654,-0.7178704614709871,-1.611318193420414,1.5109245550093378,0.08105914328527315,-0.07411748789790185,0.1841907028036666,-0.3956280330003482
0.9422027106786087,-0.25370225579064953,0.5238732434706779,0.25428419236038885,1.0184493959168517,-0.3993352970754439,1.1226826909572838,0.9118130141316606,0.42451298252384984,0.1473587554462412,-0.7006535472790235,-0.6686620559867232,-3.24592381308808,-0.35376244405642615,0.302495357778524,0.4929403423428218,0.24181027406045844,0.20849467761746984,0.8968542144433553
-0.1317304652816973,1.3570842714638685,-2.8828817158499644,0.06012573873445042,0.5646852469118556,-1.084577676165506,-0.20246762707306473,-1.5506237393338496,0.5128770238114497,0.5218470380996519,1.7329865151236574,1.8053977431084678,-0.19548432306150537,-0.05075863757279649,0.07341848662663378,-7.437734751838561,-2.3534044569500514,-0.341096011488886,-0.5926054949225815
1.9204028267256894,1.1800232738325176,-1.2298982961115397,1.1330539476305495,0.9070306340093507,-0.06036866321918858,0.1894977078151881,1.1391915680270337,0.4784497314436821,0.5735720162173599,1.6268795544595644,1.3813269717046093,0.7903059705744216,0.6104366347565231,1.0933927621332729,0.8333594448991419,1.3831316734429313,0.1265984605992591,0.6502568973832019
-0.01891840569687488,2.26767864422814,-0.848741898857958,-0.06791204387614555,0.19231592111616608,0.4406849384110735,-1.699862292835015,-0.5824564986799571,0.5780262013486899,0.549784467879903,1.6111328102337918,1.9924170205042717,0.8821345618353779,-0.5733087370237004,0.006739685883820072,0.849925705759884,1.1040234373588484,0.20849467761746984,-0.06773575720337557
0.296160347529137,0.26757062114331753,0.3349593695514914,0.24677730260238842,0.592775287037654,-0.5645017962424996,-0.17327760849429913,1.4056581651222366,-3.1845190535179078,-2.657175193864577,-1.9789144993691927,-1.9466510693330916,-0.22956813421541464,-0.1629245544736476,0.2741209489864663,-0.8543431201909168,-0.6945271363365404,0.17189145881192397,-0.5564976011740533
0.03917020512275228,0.21633736885717617,0.03577180168310682,0.06367401872511916,-1.7128149688011662,-0.05700134889733263,-1.8713497937592571,0.2110132080591449,0.5069632843977778,0.4131293087015648,-2.5361192092002827,-2.3433876216613267,-0.24372639157876008,-1.522050745045803,0.2345235605335641,0.4511656148422228,0.2055380841177936,0.11712505581840998,-0.023057893882249318
-0.38622610259555484,0.6374397619192499,-1.2269334720840794,0.7300271000793654,1.0633899318164424,0.5131166198217837,-0.2429499586819868,1.3077868473606078,0.6482104118256337,0.7242301117504458,-0.1966535530986447,-0.13740824788036662,0.9654783472287762,-0.3724207178025753,0.7786107099302202,-0.7641686944612093,-0.07569933290130404,0.03139551240864327,0.9908495122792939
-0.3388061500657454,0.1343255716937283,-1.458252781422068,-0.20675990937003066,0.4021364761819161,-0.2456418828062027,-0.40267043509285166,-0.6056349378102387,0.453052392249917,0.4812170646847671,-0.12345624414895949,0.19908480113263397,0.6009772269591199,0.37244977967596166,-0.2527248226779634,-0.4118608431347041,-0.820927440077757,0.16414221822463662,0.37919001981062084
-0.48319865712113697,0.06111060878132524,0.10656664864676002,0.5949400721173184,0.4643101187803872,-0.945537037345636,-0.08677647718432824,-1.2391228947441086,-0.25098676143861565,-1.0526614645512813,-1.6802918080254796,-1.3930828482883206,1.184739092442777,0.5539594032213352,0.5478747829461905,-0.4118608431347041,-0.1591414931455013,0.16414221822463662,0.5140312645071251
0.9900750530090614,0.7572047453788492,-0.8088824418388137,0.08316689278367113,-1.6601677412440545,0.8569809966563593,1.1040244640629446,0.27054560528220645,0.6339885530369435,0.7572267110859654,-0.11488147364687376,-0.5633117433606489,0.25556843441307364,0.9117177158303049,-0.026756551480112974,0.5577683398511865,0.7302426601228041,0.1265984605992591,1.1300586210754078
0.6330341156153741,0.4044313651237033,0.14036337181624417,0.5833808490139378,-1.097617025661725,0.2000915624163195,0.9173153215241672,-0.37954033109027085,0.31267354070651715,0.4142756735885555,-1.4868855559552185,-1.3636579202656247,0.04962887179859256,-0.14665993464308957,0.6101920913745921,0.4230381870675751,-0.44910625539832627,0.22338360669441423,0.7322521227998383
0.27906626804173496,0.6938436795851755,0.8966874303134236,0.9715188252448946,0.41488085988547485,-0.32059210479368205,0.5197893482276673,-1.1449400149068674,0.4377542725217622,0.4010245490012264,-0.621575244208136,-0.6251021048263053,-0.07511391044156408,0.7671573168808461,0.9122316084419594,0.547053128066493,-0.7793369563426477,0.200709873755665,-0.30675015749048434
0.7340877668786009,2.079464676477538,-2.5393073248560634,-2.0464822488611145,0.24011448856379092,1.0472684534035457,-1.509113334666548,-0.04425511833959703,0.54402562717902,0.43160688319102053,2.2612693448423435,1.6359761405313533,-0.9883915617099449,-1.578101901571969,-1.7565895670288436,0.25498703272626766,0.856961404046458,0.1841907028036666,-0.8713404547650305
0.7219400935654083,-0.2663373830435215,-0.46323835383096273,0.9042806431154428,0.894775100589639,-1.493740869505936,0.4156292726210296,-1.6348516724484716,0.7887719761262322,0.6895872803252586,-1.0239584819299974,-1.1611135745883587,0.9355684995301442,0.5557943810788418,0.8646719003551984,-0.3511845845359953,-0.9788404923751418,0.21835121958008946,0.024166572392231248
-0.9765652144633045,-1.109525108295959,0.8800492843815357,0.20962500314564073,-0.16366786284015922,0.47726331138623146,-0.9646401645286229,-1.3440664832758904,-0.27311111440295804,-0.45731073715426385,0.323775953934839,-0.29260752391201783,-0.5823465321819492,0.091860547995035,0.20764540487061803,-0.7891592769142006,0.37286067858325095,0.21835121958008946,0.3164757103982478
0.3187343700696053,-0.9411918284994829,0.24582268998804704,0.008500517690109215,1.0168762001940181,0.8612227933876827,-0.453463132896761,1.2635193526579207,-0.32708986860667194,-0.2431929237474833,-0.8404394670973073,-0.562772009913137,1.1260480286402683,2.018373972444549,-0.276838374404083,0.4863681288527783,-0.14467206807649913,-0.2981595859071291,-0.2976551065976588
0.3416623728433463,-0.25885425136953005,0.6764213572013713,0.12334441043267498,-0.7026607246158179,-0.5053330587720554,1.2941582455307932,1.2865035866251526,-0.41455436268532364,-0.3323330152988857,-1.2177049984017738,-1.1317901467120537,-1.5369101396674527,-0.48556447692896315,0.18651223158640592,0.6130919695850513,0.9091931421276764,0.03139551240864327,0.519488841910996
-0.8247486239270773,-0.043266504520191526,-0.43152491611158106,0.6417278521666189,-0.7848461559343652,0.09047808129767453,0.584940575384169,-0.9625274041104696,0.1380397507029818,-0.26552317951273363,-0.879717828767033,-0.7775000272926043,0.9818613531440733,0.8708297302630392,0.5603067837697485,-0.1370079296182681,1.108026894842371,-0.055309196824292806,0.1280068408425696
0.7821564599741895,-0.7129484553710442,-1.7317027510952903,-0.14711579691093973,0.9490545625554024,0.6293537464163033,-2.2031791345960836,1.3507202650611043,0.7442743476473882,0.860694895676723,0.5809707279587726,0.5645741717390479,1.1739885654447522,-0.8846522023918393,-0.035915807534785474,0.21382328569152628,-0.5716118408558468,-0.1737348189173347,-0.6326157784945657
-0.3040987172918283,-1.2818652518747162,0.35877472526358284,0.17722474051375903,-0.19100313215957515,0.09660437149102269,0.26451063094119315,0.1355688740752744,-0.5641181890069513,-1.1365156752472536,-0.276773262873247,-0.031296692613508044,-1.4128695021692599,-1.4430255329123156,0.3363494530858273,0.7113567346031701,1.5108150049249893,-0.01472540377888456,0.004892398958073728
-0.4908557635932257,-0.10981802416900947,0.4639210478482978,0.9294769557386009,-0.09074130023282706,-0.23947045807895495,0.7623048105891786,0.42561781829509976,0.5588535254602457,0.5556224204840278,-1.3346670065223756,-1.37836736618799,0.9491588832868003,-0.40849694599018366,0.9804782420642802,0.7557376786630478,0.6112758459671261,0.20423983062985387,-0.2922956926327666
-0.5230004206111636,-0.7302755510861858,0.03807177229241672,-0.07189799752912701,-0.37124380658176204,1.0316598795963416,-0.581220545976991,0.06159728166774804,0.7138657595831291,0.6891574979027979,-0.9045621811631208,-0.9242872113994913,-1.8672282125893762,-0.7565856321239816,0.023563596265993744,0.7782128032026996,1.2361022590498991,0.20849467761746984,0.9090942676444818
0.7182293224874793,0.0035386879019503304,-0.3551821839370741,-0.1440437093907885,0.008043239692734823,-1.1998364614035644,-0.7179731958190458,-0.3139747028451688,0.42382054126155044,0.27528476438693,-1.2547686381080356,-1.1695226910990308,0.9912112914888852,-0.3697473535516829,-0.09290548148200374,0.6927590654966083,0.33096707550694465,0.22338360669441423,0.8441191607440559
-0.3034513225108807,0.11899793197543236,0.801281370857864,0.6044630469779713,-1.7963493893684204,0.8647441611156936,1.1388731148356284,0.011079879648332567,0.45937749529183347,0.4081205250379579,-1.0265695893050366,-0.8428613610011894,0.8159717860942782,1.9864053533548616,0.3798538805940579,-0.4490386728720605,-0.3317116099866378,-0.2981595859071291,-0.29054588521163827
-0.25470873661884624,-0.3377334421598334,-0.7121588390135145,-0.348828497758635,0.49108553304970615,0.6238601254422887,-1.9770261851676787,-0.9939579273792003,0.22833176254695434,-0.12678861899228644,-1.0050892134795388,-0.9942009316090344,0.18046428004634746,0.6835454857609762,-0.4451457240331244,0.69991324553765,0.6671883017488923,0.12484002578807506,1.2335960549732519
-0.9515498580754601,-1.6065871515613441,-0.2893570364843789,0.011754082368003951,1.017395990419443,0.01596452270759118,-0.007104434079629351,0.015049822868887603,-1.3412500113725667,-3.8442585039873176,0.4528883646063277,0.4235379523702997,-0.21934676290473284,1.0451544511020012,-0.12064875682179298,0.4326889738621731,0.902351009227425,0.1265984605992591,0.7922819364526498
0.7589970748032312,-0.3221736924842087,-0.5728272616471979,-0.14886801375599268,-0.39298736485516617,0.4469661597225515,0.3217371177642881,-0.73359860524737,0.3281712205941026,0.2753086411105819,-0.8306411161074411,-1.0773473987660103,1.2669557054965106,-0.3956024566006785,-0.09458355228694658,0.7557376786630478,0.24891669839719624,0.20423983062985387,-0.3397048189852557
0.011578656898700272,-1.119084087895655,-0.32327781090114227,0.01814790957699188,-0.2981119748947156,0.7439097899238963,-0.7537960041962025,-0.39153886114982683,-0.502253513306723,-0.2226857560561677,-0.55138419077181,-0.27772130355476793,0.5513738583721056,-1.3982581430593843,0.17866798829450967,-0.3235195663700437,0.8930385773099573,0.1841907028036666,-0.474035943620333
0.4237269191089525,-0.44806298521952254,0.5379054469314759,0.07567410965810638,0.6949796500985367,1.107482510444442,0.6499915554809934,0.8888806701563596,0.21402370645560748,0.241876612908567,-1.197144917461732,-1.453448211996985,0.7102962568208535,0.8102676712759579,-0.020656461751573596,0.5544493140845563,-0.06170266879730027,0.22338360669441423,0.7319168712294974
-1.1314788550374797,1.0847987316915204,-0.26225518166257694,-0.4480330434088602,-2.3245369935460776,-0.17587739517749815,0.8890363196412485,-1.888136262582608,-0.3726557368867798,-0.1802497722023788,0.07288258182288249,-0.2874437314554992,0.5743256073110786,1.5507515387408415,-0.6961485647911786,-1.5553438825399155,-0.8717614588988563,-0.2981595859071291,-0.7196021629823595
-1.0075397515660747,0.2625792720848439,-0.727184429214583,-0.6527514401800025,0.786835020213962,-0.42783905124623867,-1.6009423112502772,-0.5727795780015813,0.6628880282701763,0.6320815843434685,-0.40081027307950245,-0.47900647308420957,-0.5954277347145708,-0.49195815169283985,-0.5831341587975112,0.7782128032026996,1.183946180293002,0.20849467761746984,0.9051063712737226
0.8949712721349534,0.12667732517941221,-1.599329602222302,0.01700772495968204,-0.6232912957688798,0.846943987161224,1.2323360766894624,1.5026864854367257,-3.1845190535179078,-3.8442585039873176,0.30107152858815467,0.39174490671906037,-0.7366432919992457,-1.211810847535819,0.1588880140276085,0.054290014948120205,0.5732816733167323,-0.01472540377888456,-0.4720813959243254
1.734298073689515,0.7158936980718668,-1.3791049544319778,0.18785674369588892,0.40946103908312936,-1.5047915654508057,-0.8157853946181804,0.8653250486097634,-0.17633621829795498,-0.09436914160832262,1.2197849679419515,1.0064997849168,0.2632369182015714,0.11108831878694202,0.18333242346451245,0.5641065618308864,-0.10501959941404525,0.20849467761746984,0.43892247396665746
0.8191802683011247,-0.6746663427873939,-0.13951895704632353,1.8852264869700264,0.14165979981267207,1.0820682644038464,1.1877003329792386,0.27626896659082345,-0.43936161131063256,-0.40736045783030117,-0.7261387166240463,-0.9421077760053106,0.9560421339517713,0.7578003024519583,1.849325968161601,0.42904266490110216,1.1439846096608455,0.06454439995124137,0.2075171458050843
-0.03685936459775123,2.1547251672275656,0.3625186765197192,-1.4646900583406317,0.6143154297337189,0.9387947676858529,0.4343288716317066,-1.0628196368610796,-0.24642445749129072,-0.4331606135863525,1.2652612634184943,1.779287792843445,-0.8607195815251675,0.27602193999475,-1.5345551424104207,0.8771971950007269,1.140966125666242,0.21835121958008946,0.25166303943951257
-2.2105140376810857,-1.464343836012109,-0.3181058602611292,0.08999232600427873,0.01728375247537616,-0.5674585135864586,-2.2052338453895373,-1.4823407397196797,0.5542937946397,0.38138145028954507,1.2560361852415496,1.0869668476514684,-0.5672708855181354,0.16836987202307435,0.07710908989976337,-1.3143621610149785,-0.859900754028829,0.21835121958008946,-0.026570615889523985
-0.8076949135302876,-0.4034525654597458,-1.2513185107685543,1.7292233352130568,0.6934916925062784,0.2056730177456452,-1.485364741342232,0.41396094737242567,0.07956946856524967,0.14381165809311372,0.04025086848342353,-0.1006552542947036,1.73261749761296,0.1730095379565614,1.7351204515128305,0.06505166276277115,0.64400511216173,0.17189145881192397,-0.40304555428308037
0.8691062933791391,-0.2798570131730772,0.839489422885415,-0.38298867362432154,-1.2495146136453137,0.9208117885563891,0.9556578038500267,-0.3543854047125262,0.4761562283236287,0.33828491404601346,-0.4393232980145017,-0.7553471930159188,-1.44755338689279,-0.04364725627232259,-0.37482085327178605,-0.4026792194026188,0.12778308789898088,0.16132180217639355,-0.18342645660513823
-0.6099419168943336,0.5887940490020755,1.343616175536886,0.0027647667681838495,0.05580145038463754,-0.2734295732053248,-1.3545400758902466,1.1856697331712727,-2.253460646898889,-3.1792472689066855,0.26801472700802864,0.36318593616398526,-0.017847622341069784,-0.48719172372125924,0.06696347841434896,-1.5211603442107948,-1.9172415667109763,0.21835121958008946,-0.4236017844490838
-0.26430360227558825,-1.1146182876605533,-0.04995811902770483,-0.15704319458205396,0.6391970461840671,-0.3199658184477811,0.8536438704445185,-1.4315946999567144,-0.21098043473891712,-0.36150505463277066,-0.5698255511891235,-0.2846699999474251,1.0044434666361088,0.409829990174327,-0.2067956112555015,0.0785094745281385,-0.28228233348355297,0.20423983062985387,-0.1856350427653409
-0.10948516237854722,1.8630892283147844,-0.5726822694478247,0.05145291914383208,-0.1526179039679509,0.40423153182132987,-0.6465286457026553,-0.9548918017369726,-0.581626702477227,-0.22138156213181082,0.8563270690953825,1.2178701168863129,0.5175940748197081,0.39330656730738967,0.009513091301368095,0.7867394617931636,1.2601182813677723,0.13110349440717206,0.9048806697616516
1.4899942775896888,0.7843273620528509,0.9380787478393606,0.11218591622725367,0.45348846588092145,-2.7342937475508786,0.982221031970919,1.0829759006071058,0.6745140397349584,0.7329531565492419,0.677081439396919,0.5043335308992166,-0.14342372291999295,0.48008590829436576,0.06075555658907834,-1.0945593941611136,-1.2032491600534523,0.16132180217639355,-0.21914449564971428
0.2682886889995544,-0.7669567866203003,0.20162443950555564,-0.4654134291365998,0.1603984155596887,1.1390472263718168,-2.044089087102932,-1.7361565414857134,0.7927408075013758,0.7562802413300168,-1.13523892914382,-0.8594564022028254,0.18180712768056798,-0.4087901829876844,-0.4081913866857496,0.7082941340461918,0.2535142341864419,0.20849467761746984,0.7979285864390404
0.5657575945118889,-0.4036721623441394,1.343568306930296,0.21075182410057836,0.838985774872065,1.038136880590259,-0.393514453584711,0.48696818438869605,-0.08028622458374025,-0.012793632400491698,0.16209615487581305,0.3630826994769281,0.6509457537328531,1.6552114933668276,0.0018723839103385216,0.20885045334041086,1.2601750811625725,0.08441905259023999,-0.4177110998576721
0.9054551769563822,0.6237088365024143,-0.2504883133673469,-0.920561276101743,0.7614534585532197,-0.6802342645651127,0.6239162054070093,1.3500101452540572,0.9569441929526851,1.0674660830511151,-0.7346436614191063,-0.7499277576528471,-0.9497413877762093,-1.5092253307829753,-0.7077175907115375,-0.4954505361480748,-0.580559081414696,0.1841907028036666,-0.64506498712007
-0.198005542661245,-0.09481010381617187,0.43759530602045205,0.944591953971679,-0.2376204556318351,1.0232125258150575,0.16646455566055982,1.4372866290157622,0.7779770086690225,0.931685105931155,-1.724857425566562,-1.697716649420699,-0.7374208468193212,-1.4286442095299121,1.0776373755648931,0.13301786722055842,0.34533425766786785,0.1841907028036666,-1.0761262207176607
-0.5379946973323252,-0.9856268174102499,-0.49939740829171386,0.3229006988934863,0.5378612376191876,0.060718370793743065,1.126309690494555,0.11332771824225071,-0.08353163346067674,-0.15146572381143658,-0.37346051459954127,-0.4899467700339846,-1.146080222460163,0.06697131995235454,0.32513906291825606,0.8608522040782589,0.5074442609101797,0.21835121958008946,0.34602546454925315
0.21185990939492516,0.6338177400526681,0.24341734178697766,-0.06477724864733385,0.5720069214587264,-1.0659531371631694,0.22309305500603185,-0.1334496545102884,0.2851820121005732,0.4195479850742229,-1.572379409308208,-1.3643298240902182,-0.07666795160406789,0.2726790186322016,-0.09381822446703801,0.4529595102988733,-1.0759518058184983,0.21835121958008946,0.19055563897345087
0.27411720336856044,-1.3268311662762673,0.03464096030072008,-0.3620930547574071,0.9929338526558769,0.5325037322707858,0.16440024204109424,1.5396594213946313,-0.09643575990035484,-0.3205099238091477,-0.35154892553267836,0.03450491795855047,-0.07590236222548007,-0.7555112775885043,-0.2618602277733281,-0.3570850112613428,1.0079883903899314,0.16132180217639355,-0.11040345191919466
-0.7458099077980355,0.0711919301731621,-0.4695935223601616,0.9680220273457154,0.44413989845561835,0.6100924339814747,1.0572082279388906,-0.4770859006802596,0.7291867734589219,0.6494110746770309,-0.9648496919434311,-0.9127317483878501,0.014969979817727234,1.562071044662428,0.8223787564217189,0.08997972646320569,0.6571446474260259,0.08441905259023999,-0.6102227614085624
1.1387677577582098,-0.5386058943052877,0.45345431356406507,0.5643119427552964,-2.2001708417074823,-0.035420879181726046,0.472773163201489,0.9909799427921063,0.5779320660732727,0.537724605843388,-0.26510109914279545,-0.23971393154033516,-0.9288321069931817,-1.4476908611823198,0.7106263463651583,0.25498703272626766,0.45360300851278845,0.1841907028036666,-0.8371226397494638
0.4121807250241694,-0.7859684676336623,-0.5347183620655414,0.8084660991264218,0.695965235859152,-0.6218815372623633,0.5918985284291733,-1.2216505105905515,0.5121116925932505,0.6607568683990136,-0.752552798652788,-0.826189015929295,0.17899117716058555,-0.1878012308982168,0.8398000533517366,0.4230381870675751,-0.41826348179471834,0.22338360669441423,0.7975530583867603
-2.559815142015537,0.15413801237735128,-0.5885461467400841,-0.13891949910329146,0.4339114094792274,1.0863999197605225,0.9017195258940434,1.3655177250048423,-0.07297366455819017,-0.5022465866419928,1.0457454517104587,1.4434246494614864,-0.1929804238896367,-0.37437880517815314,-0.08723569505105894,0.45051694451940566,-0.46649221231724136,0.22338360669441423,0.6249395557264564
-0.023325546444653903,0.4630314276517152,-1.7107489997750505,0.22596462188460434,-0.7249478073393042,0.7669690380557274,-1.0112221265792918,0.5651272473072835,-0.4005801348770674,-0.2920835398640066,0.16486965388656638,0.537707990088597,-1.16709918482288,0.5665330108322303,0.16695734432706535,0.7470507176901685,0.016841108313310326,-0.055309196824292806,0.03127529994747651
-1.3459005976364289,0.23391460760274785,-1.1506918397365646,0.8330874196489911,0.3466325759855329,1.148275483283352,0.5116019805719154,-1.548321223119479,0.07126893633175244,0.3154944898549225,0.2897954856283705,0.02517006557599364,0.08666734561162198,0.4785235319232439,0.7997256852421796,0.7528854983621552,1.2185704394357075,0.16414221822463662,0.527642918533509
0.6025214222770835,1.5627420927280715,-2.967641488085221,0.8008989414898225,0.029224338762014183,0.904190530845213,0.25629540195724854,-0.026865406263312377,0.585029774789627,0.5669937884291304,1.9914781264266774,1.8815024280012134,0.08997308371377954,-1.1883065514155489,0.9191495450433281,-0.36632297132697533,0.4963964352652099,-0.1737348189173347,-0.5516596081638354
1.5317837849967115,0.4759616775117306,-0.417416436554126,0.29411059547782686,0.8823304507861969,0.035124032049990754,-0.29821447018839925,0.785104005523778,0.7539430508311155,0.895713970722755,0.3073766838349844,0.5910841304794854,-0.2674266683160688,-0.16013124285395414,0.3213217379230586,-7.437734751838561,-1.5678811144059202,-0.341096011488886,-0.7160142670269511
0.0090277540914262,0.4330408646871851,0.5533391093075771,-0.8637999072881508,0.4944621930951292,-2.386776320913566,0.14081004112195628,-0.19693464234005537,0.49436201378900174,0.6547848227093875,-1.5029898139860611,-1.421193205933203,-1.1390384918236092,-1.212840484517075,-0.6918971056259764,-0.07025283571503543,-0.6045935955273096,0.1841907028036666,-1.2045870392224813
0.8850123175273951,0.5555695447992699,-0.7071948357412722,0.2697364497124753,-0.789349788627407,0.38295361509725934,1.112707033891802,-1.8553340580042277,-0.5526975080630467,-0.8531659518988831,-0.48783580390183906,-0.7952877284697927,-0.13058781223598878,0.8513496302616003,0.17612113353885714,0.3379054965500012,0.9271060321068214,0.13110349440717206,0.3835578084105882
0.7946163402370329,1.9413071611381147,0.22388365435651755,0.953553138001478,1.0612843698849643,0.885178729099414,-0.6617949013416752,-0.6287913320438483,-0.2854673822408383,-0.18784402905808556,1.03716062354221,1.370079007401947,0.6538921601893556,0.639860400406673,0.9066730170092675,-0.5959609981295942,-0.4182461683086913,0.1265984605992591,0.6923067747826498
-1.2806817792378624,0.8713027642443592,-0.3385280688700227,0.8698610890144085,0.5097036466528614,0.3814707959272028,0.22340337587287648,0.780164665670357,-0.4471550292899859,-0.6648114623878488,0.013322552202834856,-0.06751293827817584,0.5911072447022147,0.7840068491992924,0.8057535791231124,-0.47435241673770046,-2.642421924735017,0.13110349440717206,0.3738807440923046
-0.0726911824913581,0.20464151415700377,-0.16715214029811615,-1.2286014277479937,0.4806456690421139,0.4569728303519672,-0.27972584807424905,0.767685538723093,-0.21449150081275284,0.011188369030187757,-2.190623525866898,-2.111815014952196,-0.2863697728141853,-0.8980131717692933,-1.089620479998107,-2.9937579550582725,-0.6476875045734521,-0.01472540377888456,-0.3610667591979407
-0.9319909242387475,-1.1000889965555323,-0.002760711878211111,0.20056932249712836,0.014564034579980702,0.8453104174052082,0.9007112973109173,0.981219154870552,0.6718699614559768,0.5727122035986614,-0.1147604489294583,-0.30734904931261775,-0.20069921674189176,-0.5477835988573367,0.26984009027470207,-0.7641686944612093,0.4163552698493085,0.03139551240864327,1.0023693491074956
0.9956962105556093,-0.20825194930635255,-1.017158848885614,0.4561783919109964,-0.8343183390039018,0.9811205271807297,0.02704674183030111,1.4478691461357058,0.5900700171030627,0.8066139702354087,-0.14130317160421105,-0.46707500478887837,0.16326968481437365,-0.2724580411926304,0.4955553849596431,0.6231738031409695,1.4571481419630075,-0.13104093546488998,0.6368162286869359
1.8457867371118004,1.0463212213035045,0.5234480130650732,-0.9202273060608934,0.06807934866336895,0.4175214289500875,-0.7818021405949767,0.6629676332596218,-0.04763486851794385,0.12803336614020813,1.1355261199308158,1.231813516821795,-0.6121246582871867,-1.2724608008677756,-0.7382287141410744,0.7262939661054941,-0.09243510444702425,0.1841907028036666,-1.0249657398833882
-1.2872523488501944,0.10251051571036107,0.5835212591779848,0.5384199845391626,0.16087544524516026,0.4034432537116534,1.0915490352863593,-0.10414956823909502,0.26684058020118084,0.11071092325453025,-0.25515407924543904,-0.058082880945749246,1.386674621784294,0.6857038695475157,0.4747967803391219,0.8355071187921906,0.8489547564300134,0.13110349440717206,0.6717005752695067
0.4283987735924726,-0.057968784679679725,0.7676082038464627,0.7085881137065955,0.6897783630257102,1.155305330387866,-2.218449332369905,-0.14548765389836119,0.4412520866937147,0.36491854937036905,-1.0967201476416923,-0.9203338221772608,0.6205748879106594,0.5695716217604976,0.6627590567430981,0.7867394617931636,1.1043327902993132,0.13110349440717206,0.7630130338853667
1.3761293983107925,-0.7457238362643341,-1.2208007561438188,0.6559301445490993,-0.6031057306545604,1.1441534518650516,-0.6173401751187869,-0.24440458976606227,0.46946357536479116,0.49135447149402744,0.7221121700472445,0.2660995308469063,1.4211486702783613,0.9854855026833144,0.5617900633748748,0.7329888721629136,0.0714959807836227,-0.055309196824292806,0.034769944928696395
0.07063920654909027,0.7804360260982409,-1.0805850888985176,-1.7391810750577585,-2.860875335663443,0.19215860044035757,0.2705308856130877,-1.5164766819676765,0.0583863443220913,0.0697619943490905,-0.37056741541683746,-0.3647677119647408,-1.1482341290670148,0.18660051902730465,-1.8000615305909298,0.8608522040782589,0.21270077579227528,0.21835121958008946,0.19374754335135547
0.5275553010843441,0.7071376259941783,-1.727246494634537,-0.8150554594806311,1.0034389165990025,0.9745433705710477,-0.32597014909886546,0.0032332990352287806,0.4193558492462933,0.5006055814706002,0.38222579745663954,0.5588756711228892,-0.5396636918582182,1.4636977495360268,-1.081801139273953,0.08997972646320569,0.17497292674233683,0.20423983062985387,-0.5642132357858932
1.299825101323,1.3921301391242407,-1.1891644059748914,-0.18832449920068614,0.2899686410109716,0.04030613207689063,0.8740232655895914,-1.8271732959438434,0.7999555864755674,0.8829970425413931,1.0702729656393544,0.2737057624531727,0.9608419885252283,-0.15276825696128335,-0.16417551165495922,-0.7489569304791553,-0.5814787911365737,0.03139551240864327,0.7487402894092311
1.7896371668722928,-0.8908421222216621,0.8937107117418687,0.19953385241361976,0.05812041719540496,0.959571990173705,0.16956684921704873,0.8120098835698852,-0.38187427769379145,-0.22391971346659414,1.168800631069632,1.1186289483603422,-0.773466492081312,-0.9036305441437615,0.30563724636627293,0.5228667626264961,1.2824717839414126,-0.01472540377888456,-0.46932811561912824
0.10315941928918845,-0.6777068463516237,-0.1744243079459293,-0.22156088766082652,-0.6054085040505844,-0.7191279194674969,0.7053520620594619,0.4438104188489314,-0.017862417989511773,-0.20314230832061253,-1.2762748359100884,-1.018709418547019,-0.15857643268459148,0.30999893167008863,-0.2592547191947043,0.4199739519174831,-0.053541637443694834,-0.13104093546488998,0.29265594157648805
-0.7933180983275357,0.2620828024308836,1.0218688880318507,-0.042479767060616916,-2.1201461896604186,1.0831910693264302,0.5939541707615852,-0.9058886012499758,-1.7307808473709767,-2.0652025444886655,-0.2419431433830011,-0.34315902735684845,0.5629229247513496,0.7986177455426985,-0.14231349227103102,0.5544493140845563,-0.18711354577532363,0.22338360669441423,0.8222152054797304
0.9552222002209148,0.28654748038908895,-0.9554179375446281,-0.9003349780228012,-2.007632985887436,0.8310183349974053,-2.0155123279955496,0.4189991609319556,0.08425741113772543,0.18523258093292339,-0.2799190509197324,-0.5689681332325375,1.0027688686166276,-0.45165538582103587,-0.8348580990613802,0.849925705759884,0.8156213981193096,0.20849467761746984,-0.17090882636616087
-0.11276155724156646,0.4376038602035081,-0.34004654331446194,-0.5510429702954632,-0.7900297566192144,0.3143293598643055,0.8109255468713149,1.5071436148657702,0.7149516249710867,0.6628062134532339,-1.6536788358807857,-1.7291215457545697,0.7204787347151536,1.0848216449958814,-0.7241953669431633,0.5373286455107078,0.6937321463044769,0.1265984605992591,0.6663699987225563
0.009463751289756801,1.238825092365774,-0.48436715856229134,-0.7570534315877105,1.0555170958323994,0.10169919615459025,-1.6418842173223658,0.6273916549344773,1.0273668540242944,1.040462651831353,-0.26520648643205835,-0.044793325747392275,-0.6911052900107962,-1.237521922374249,-0.5859886430108524,0.8288448138909298,0.25220135809775057,0.21835121958008946,-0.7380323392275854
-0.17860008111866324,0.9352464397526722,-1.3395853162677636,1.1381520853568234,0.6044026209253802,-0.004364873469595461,-0.7606599810666957,1.2074714987406034,0.49027785592278883,0.5335235010288732,0.10046869037626785,0.029803583520095957,0.5770567079187446,0.38049478673559667,1.1199967882945412,-0.3511845845359953,-0.1493754285268512,0.21835121958008946,0.045263496424712696
0.35964915647862505,-0.26372205361262135,1.1475064160668216,-0.26316871305558664,0.5836278713872485,0.9404092986412095,0.12923312480373503,0.8747200460246553,0.7129618889273273,0.7771798271859298,-0.33869729743841653,-0.0643049928154071,-0.2061662971765366,0.4157970768164669,-0.3168404834375347,0.8724781896809247,0.8698704356365108,0.20849467761746984,0.4534730583729223
-0.8391714613002851,0.16795154289754485,-2.063620110934685,0.20362055292808756,-0.011692044904979977,0.3594709082555723,-0.13216043173318912,-1.550210460973895,0.3490313876921209,0.3480115339522676,0.7603476168773626,0.9672287900907758,0.503573155297019,0.42659614406702884,0.16136356753044515,-1.2268963177906056,-0.6481421866735803,0.13110349440717206,0.5496111254864466
-0.8668064676884609,-2.85644731541857,-0.794004454315775,-0.5629455492940666,0.24854591714372423,-0.4932353895121495,-0.3748894678259403,0.8943846005143467,0.4359156169442417,0.3343551810677461,1.6314245970065373,1.8213939894598632,0.13369282292174592,-0.07775694079936643,-0.5518499737770819,0.5856139334838983,-0.4814767877639055,0.21835121958008946,-0.19353270841224843
1.0319579598856048,0.8014607488209616,0.571915643682213,1.2849179631366308,-0.5341983280785078,0.25278610530794837,-0.8397280445051127,-1.5075714896410823,0.5882078913117595,0.5052228934785018,-0.2345168215167107,-0.47161445657266193,1.340922643732,0.5639251921855417,1.2528276436442087,0.5506747268071782,1.2156146250797988,0.20423983062985387,0.21579399573965424
-0.7750118874296036,0.9200856713642913,0.22481575658312722,0.2695646411433849,0.5503119583056015,0.9059650556186024,0.5959971085656031,0.3949089388460099,-1.2264216179811662,-2.1851293259191853,-0.5067910751745266,-0.7267307020858399,0.6405108598117644,0.8282250510569638,0.178920444779708,-0.48275025768767993,-0.46820305945648016,0.1265984605992591,0.36904088630401605
0.2504671723972431,-0.35591238014234644,-1.6210266676619347,-0.1022278446851827,-0.18520930658399762,0.9837298490909776,1.1520128587062948,-0.40519610748909146,0.44742444501508616,0.39713967051512733,0.08898486790338342,0.42058602710898174,-1.0145052252893811,-1.1062138426159398,0.032128090215643126,-0.07025283571503543,-0.24125385776320948,0.1841907028036666,-1.1809100084942599
-0.4157145313848287,1.321475632716484,-2.0957394984234066,0.21838356167001796,0.060215026862285054,-1.4419419257329678,-1.4907451309098831,-0.28903187302477046,0.1630417626601539,0.28448136283591396,1.1832876571982762,1.0040377151932949,-0.05933141420474317,-1.3104906649862085,0.3636637364618327,0.45530917100767454,0.3420597204118412,-0.01472540377888456,-0.05690238735088496
1.0781552362642068,-0.8524727873518669,-1.6038142010836849,0.5736311883195135,-0.6221992332918062,-1.6536173868818578,1.021503557849466,-0.04580123427872131,0.27274745589144755,0.06967657604416339,0.7595219314454209,0.3977229567786052,-0.4699136561736298,-0.27446381466350617,0.6131588554053499,-0.09679142909253305,-1.1251906111674799,0.03139551240864327,0.8687861641336293
-1.140712381825628,0.2576621963471378,-0.45346502789438,0.40051879296091325,1.0450680586714596,1.078852907011277,0.9464060253388571,-1.8720262661074325,0.8072328137586662,0.8830655115279532,-0.4577559926204822,-0.27350251182281626,-0.22708430342549563,-0.02869434385489274,0.41403772944843337,0.41307556254241395,0.8324259252474545,0.17189145881192397,-0.4721107175866984
1.172406620330685,-0.7792905227326454,-1.2840994382319926,-0.718827474881639,-0.9697005360077207,0.658281562865828,1.2501629945710142,-1.7566423957760744,-0.9342363534547033,-0.7070211157013089,0.554769337736942,-0.05173835792014253,1.0668398072292702,0.5332664204939567,-0.8067909662113899,-0.4118608431347041,0.3171539207255418,0.16414221822463662,0.6795352586357203
-0.2088702660208475,-0.6589540949099522,0.5373185220758196,0.4264569588077504,0.8997254224229505,0.8798533780832863,0.7461597014965043,-0.12199712564426732,0.5446240498319931,0.5699551576392113,-0.9817801195791264,-1.0528326351747295,0.5643473628328898,0.9507372455643514,0.3268646154180717,-0.47435241673770046,-0.41438051122978525,0.13110349440717206,0.4374646893469946
-0.5227292698510436,-0.24747807798180543,-0.9061151025917121,0.42322130422839366,-3.572591772838071,0.5114375298704773,1.0620182010003894,1.1320056878546523,-0.8228915090395134,-0.8593542964518667,-0.6239121787826974,-0.6520220328951613,0.2175236137227182,0.09544528330396872,0.4234616186762068,0.5641065618308864,-0.12424841840870005,0.20849467761746984,0.5947238296038518
-0.48039625683531517,0.7722437808899362,-0.5249516412510404,-0.05060279652991753,0.4698097028592344,-0.05673156837042532,0.48265225313635446,-0.9508143435773204,0.9009443266989758,0.8568660132347408,-0.747320438297428,-1.0528547383683533,-0.1830075858060906,-0.3200825445223674,-0.005610712203580707,-2.7331311851814992,-0.9306613790460561,0.22338360669441423,0.4489252665746882
-0.5308468317479181,0.9417791787828261,-0.05325846411654948,0.9388758494858941,0.804249278702101,-2.402973604994802,0.784525344793601,-0.29981215216393337,0.725460769187684,0.9371381544057337,-0.7118876486774066,-0.6794214909591929,1.131187264649537,0.9708327612958201,0.8573067717460704,0.6604379879311176,-1.9200674098624357,0.1265984605992591,0.1893790473884688
-0.901654572288873,-0.10854300911402906,0.2819785637427288,-0.38826543805673225,-0.17226673528397418,-0.439240334561489,0.9087452027656695,-0.47292253311304133,-0.31692084281403526,-0.39075768088971236,-0.9123867418894306,-0.6494946894440461,0.11328851540748734,0.4208993511101814,-0.4465060751668163,0.8325212837698654,1.1625673943005386,0.22338360669441423,1.067601714505815
0.6109550267171473,1.2237956014810747,0.0205083631729215,-0.5830859892903522,0.527252423420048,-0.7731989205204411,-0.09613123145796175,-1.550635316672232,0.2656937799298721,0.3028979281117784,-0.2895709648347571,-0.07633684056606199,0.34301530865850616,0.27922699024495434,-0.6255963044931918,0.3365685286615997,0.5148996896693203,0.06454439995124137,-0.5629236020824487
-0.013412324461872545,-1.5099495192108183,0.4835130426144112,0.5531157702961158,0.5087458001091126,-2.5397774385396428,-2.310531004782094,0.034975987980073966,-0.17962212810432926,-0.2842202811263444,-0.017907069122214504,0.29297102585503004,0.3090405955798218,-0.6065073925689883,0.6248697910704485,0.8132751997335466,0.12445503756671733,0.20423983062985387,-0.2769053868678446
-0.6284833086313575,-1.838022431924758,-0.031046138208691045,0.46626878044278924,0.972352347177891,-0.23204059128366297,0.9399385484098585,1.5242222031382344,-0.023735335872442843,-0.14311918193672477,0.4554933227547018,0.7211168225644357,0.7835674979116578,1.0393111145409275,0.3574005010802928,-0.28789544952929647,-0.6204294793475178,0.20423983062985387,0.294552142494209
2.264853237940725,0.9355764778808423,0.39445365067552796,0.19544006146658724,-0.18668816292969692,-0.1271331287177715,1.339336605424235,-1.1746352236649598,-0.3474200456289459,-0.021671796835643943,1.7057108774494265,2.0589644701581378,0.5885778331381869,-0.3729738090947519,0.24590837117567196,0.7782128032026996,0.6985547972495242,0.20849467761746984,1.0043388582833732
-1.1945221115076101,-1.0276063228314263,-0.2227720370374925,0.5917012956429859,0.9148353733868154,-2.8356714946971255,-1.2985489446797527,-0.26032445238813195,0.7560136041053134,0.9087448677214638,0.09040377451896325,-0.19313908453221115,-0.6135013881384361,0.37327623382429986,0.5643870673527484,-0.1464711746344463,-0.09772170295124569,0.16132180217639355,-0.19643386384760747
1.3676601895871874,1.4053582940280884,0.5521465966733633,0.46021296948456997,0.8418195973999345,0.9483159837116001,-0.9004935005631024,-1.5513140529971399,-1.5972019830321247,-0.83235921957576,0.823656999095138,0.3009164899069712,-0.8796504116048347,-1.2125256944122504,0.5893748176877102,-0.25602084013404824,-0.49417302256196277,0.1841907028036666,-1.188864678134975
0.351653473462955,-0.15418941764722766,1.9924238504323502,-0.40026382494644325,-0.5671311004700545,0.5496505135215518,-1.7765669396364092,-0.994276016384807,0.7895631479390509,0.8976604007997091,1.2109195512612887,1.7175239161706324,0.43010993419422633,-0.8465702415144983,-0.2882138624221401,-2.6530361781657867,-1.7765418651547131,0.20849467761746984,0.039934017693698344
0.17784575652170367,-3.6652578530184226,0.37282590008147914,0.43282777167912634,-0.4054072282334635,0.6494632666868699,1.305986716671994,-0.9517692839245324,0.3372115605197703,0.05388080701089572,1.9280726650759292,2.5097814500360003,-1.8892276127126415,-0.3720042168277199,0.4824065597476605,0.32764906795949156,1.103504001479127,0.16132180217639355,0.48651336304309745
-0.311470741494478,-2.225509414585468,0.18130271500959194,0.5335079097221833,-0.3919652296964694,-1.4306004612194607,0.2603454934730645,-0.7796537491166851,0.37936672119544107,0.3446969556201961,0.7372717263292256,1.1764561785460033,-0.2809358155872755,-0.6274112377487812,0.6074518829772708,-0.3570850112613428,0.7570604513663436,0.16132180217639355,-0.1582164208260601
1.2951431918565866,2.649252114923874,-1.1807590338063991,-0.09258716371788182,-1.258307872019622,0.4271123114373613,-1.7556565848631587,0.8615299222937188,0.23618592609907924,-0.01246237254857531,2.5991174288125856,2.696064019978142,0.18415617139075333,0.3017247027252923,-0.12607719719030128,0.5922946884366752,0.26092240744436346,0.16414221822463662,-0.5084864136761316
1.163024770325146,-0.7612941340738171,0.5250195380769976,0.1374123392196784,0.8983756468821726,-0.7867638365731578,0.5379554904122352,-1.1803801291572893,0.5905858861739814,0.5215331756322742,-0.03158876989167697,-0.18742925920510445,-1.1833250397349384,0.6858122295352194,0.06016280708252192,-0.7688941301857924,-0.22918173833711328,0.16132180217639355,-0.05865222149873657
-0.4709994093792245,-0.07163910265060365,0.6756727724235531,-0.25850810766107096,1.0502716842517716,0.969955776469343,0.07631152577636331,0.7396961692518923,0.5309977330691952,0.4867290919973642,-1.0742854682321945,-1.1335362826705355,0.7831411420119856,-0.9429592048380802,-0.1382139702055378,0.3124426023284712,-0.7537546525178647,-0.01472540377888456,0.10072447727509377
-1.170088604102222,0.6486025913578735,-0.4072067542193266,1.2825600413630636,0.6478601179004195,1.0199684663244424,1.280941464841367,1.2176789281426963,0.46903164580240875,0.43030841257491514,-0.25817760696656883,-0.22944474600930317,0.5592931095128264,0.22743015358494015,1.2799175394478528,0.7880886246932313,1.5478123950386957,0.13110349440717206,0.7294754849316203
-0.8267070375289013,-1.6960241033212313,-0.16328133973613104,1.117486476132531,1.0222799482532503,0.5711708650252257,-0.18754747527165166,0.08997933665571399,0.8398844010418643,0.8518671265957951,0.4345212135456752,0.5409909444129581,1.325039870559217,0.5067687996778619,1.0872626586062173,0.0785094745281385,0.09652042058558939,0.20423983062985387,-0.12198082785469586
-0.9958854012968918,-0.1591684350099831,1.2203562293873023,0.3910823008543041,1.0668093460999555,-0.5221008501927225,0.511053827047599,-1.7340165111581076,-3.1845190535179078,-3.474369372397675,0.23126980614492706,0.0955757344591332,-0.11216553596947645,0.38561893107506756,0.35816208482098977,-0.3511845845359953,-0.575350059767369,0.21835121958008946,0.11414401517085185
-0.7052560788441118,-0.8395898945250592,0.7950341494918723,-0.6579356127934176,-2.4497232461656555,0.15403519233852192,0.5219886327434148,-0.1734741498422784,-3.1845190535179078,-3.8442585039873176,-0.18098962931556087,-0.7335634756648779,-0.4115326262065807,0.541609546139932,-0.744778068722582,0.8145395254665672,1.2847324082401073,0.16132180217639355,0.002909118883331311
0.892308648752851,-1.0462151175762575,-0.37099434592648894,0.20331188882970497,-2.947749350205057,-0.0759960876252632,-1.4817169006801536,-1.0987612810532885,0.8241336389586793,0.947530152427849,-0.16359383561379373,-0.39241247264484175,-1.7130107328806612,-0.2522498829684017,0.24047491731334236,-0.5465624750072431,-1.4974106831685263,0.20849467761746984,0.6402465884578288
1.378823894986964,0.5727665789115891,-1.2020838619744036,-0.4199975738442512,0.19577335577738697,0.8722847195074577,0.2331829441951352,0.17699491431531797,0.7530627295396944,0.8831605781769275,0.5753023748153481,0.27176916123058087,-0.04471333270116311,0.6779259933276144,-0.5185666620921544,0.5474049807415354,0.4516416542314066,0.16132180217639355,-0.13910837466221268
0.44209976171535315,-2.0524362061862473,0.19532007053656805,-0.34867979543570427,0.23051756524603167,0.17389790109336375,-0.5346885289235239,-0.5292470132734989,-1.1320541569496174,-0.9739876945232891,0.5539526517810375,0.9792857688742609,-0.008086238160504407,-0.13812054278108984,-0.32740770418793036,0.11646300015226858,-0.023352669231096353,0.13110349440717206,0.528471256721057
-0.6682024492511601,0.8277063992169731,1.634715367326548,0.595569016992328,-0.648615309955991,-0.6305752811306966,-0.5588982366628009,0.9700872155926311,-0.3813568782432914,-0.8340617449392145,0.8904181634837339,0.9815569844981016,0.6784380698453977,1.2828395588054242,0.4627838298415296,-1.5995005895525074,-1.2261655115004289,0.20423983062985387,-0.28136310881067317
1.2173435638289036,1.5356424617614668,-0.23307789084500571,0.1359113756663664,-0.018186780124406755,1.0893075064075814,-1.5409509736692182,-0.6082568921781277,0.7008152813635955,0.7714017142509921,0.755785100168066,0.5666950569608807,-0.3616604802731596,-1.4703272364702693,0.2991034882404675,0.4649081696034814,0.9960704572246256,0.11712505581840998,-0.2741010868996031
1.1040316320149233,0.508823532248083,0.9634769573842216,0.8566592862072411,-2.399159058817689,-0.562069782780908,0.1793199840675554,0.9500626990229603,-0.6603061336704072,-0.5932508762400952,0.04139376896735092,-0.3148291105245822,-0.4349652180500804,-1.2163163904881857,0.9757628674785161,-2.6296466639224176,-2.4586320705463156,-0.1737348189173347,-0.40255319788544897
1.2680706160173998,0.8608406285746821,-0.14236611849424163,1.534937288526234,0.05741193556057708,0.32620308593799124,1.005023977541755,-1.1870169428902384,0.5916847716440009,0.669804201701571,0.021151777196512428,0.037411233721550516,-1.7576889518524546,-1.3228399476000081,1.645146163863331,0.32545593058740596,-1.3202171149550868,-0.1737348189173347,-0.406570377506777
0.4302678741228859,0.554279552609609,-0.364393486888353,-0.6929530820766296,-1.6132561387927526,1.1215303107593382,0.33428443112585504,-0.7524764564090742,0.118828849891381,0.009042512753313546,-1.3577507815753747,-1.546119002982185,-0.2628939100595865,-0.3723664706482883,-0.6399917158582806,0.6231738031409695,1.2016862548171074,-0.01472540377888456,0.5536847724686809
1.1294856182478328,-0.10640403262057076,0.014546866619280679,1.1555069236739397,-1.0472563539939748,0.7965054948909712,1.274211503895269,-1.4760557245778299,0.6523362234842487,0.631917241751824,-0.6140044250183493,-0.25975792932433434,0.13083819385215084,0.5147925432003877,1.1252945446603384,-0.1464711746344463,-0.036452780514258626,0.16132180217639355,-0.03136789131555322
0.9377316510406204,-0.4276922156297121,0.6170833941716425,0.6668472684127619,0.48737341573735204,0.7872878279766281,-1.6454102628044718,1.4006277429321952,1.1441546147762633,1.2239377499495605,-0.5211877985007348,-0.678531065936606,-2.153518171054805,-1.3792045242308675,0.8042855652208011,0.2372520848035465,0.40140403914114453,0.11712505581840998,-0.5371409036595294
0.5576217623886095,0.18537029268665356,0.39206788604802434,0.24982753540084296,0.07876908164921301,-0.06489062249729087,1.2918082947124816,-0.7318023323554141,0.6314893738141645,0.4852816158115672,-1.574756774652369,-1.5372527969059744,-1.0454564818755878,0.31534844330270434,0.22213042505069017,-0.3065482906264477,-0.05040205692040148,0.21835121958008946,0.22396602898591736
0.5324531863351583,-0.809547231795719,1.1367874961961413,0.24126373512787516,-0.8549334890777289,1.083657148920439,0.4923842507603283,0.3910009706140164,0.18247909493769582,0.1735574336577659,0.046386575643650625,-0.08793987954617383,1.0183941752715797,0.7668774127672505,0.1573863362037206,0.4369244138087729,1.210109081617853,0.06454439995124137,0.4331734280147183
0.02610430246852328,-1.2131008762096007,1.1841002249406545,1.726670597357568,-0.3539839444185708,0.5743317407341632,0.28691596470529757,-1.0087311881704935,-0.2529886949115234,-0.6623709737166139,0.3431394555970653,0.01616869280815508,0.8809133343716515,-1.143972681078454,1.8215799199073923,-1.125955918083003,0.2450086136345814,0.11712505581840998,-0.07519820027463157
-1.0976885814604567,1.3471741429972304,0.40702133854642464,1.8152407842441631,-2.193213132819846,1.012550201539426,0.9219346680006277,-1.2199514741019672,0.47289369976159484,0.4832658292857363,0.3969668530101051,0.18091195894184567,1.3763246855124611,0.7082502032589704,1.7817512960754491,0.0785094745281385,-1.563524882059704,0.20423983062985387,-0.2512740389164019
-1.3644134990626313,-0.2842291475580086,-1.3748892638349084,-0.6406586645059413,1.0147637838056232,-0.15002914437378853,1.3116958367362548,-0.6237339626384005,0.11586520258465006,0.1490464651107316,0.536975039920341,0.08088183114043017,-0.1704380101012826,-1.7673865252173757,-0.4114130408901469,0.34900476258147256,-0.10330239367041394,0.11712505581840998,0.04348260091452766
0.10653918697590745,0.963787963406713,-1.068758384281892,0.320812946684409,0.7323117422227118,1.063777895898107,-0.9936200126553748,0.8461161624400193,1.0951707093078107,1.1122779205277278,-0.1826157291244804,-0.3836662370808815,0.6100869653457301,0.8185450741558473,0.23344971462744446,0.3379054965500012,-0.026162161895986417,0.13110349440717206,0.31105028974907956
-0.07934104810528678,-0.3298883631749993,0.05849724317381433,1.2389186176224731,-2.468830102812681,0.7928343729399822,0.33021456951953765,1.37313926233348,0.7540692264626107,0.8317231653349242,-1.8953347113804582,-1.6924937721429074,0.23020308407774165,-1.119142507589204,1.341955785343241,0.4276569046198108,1.0497721439948509,-0.01472540377888456,-0.15699208674848555
0.6859826174087041,1.9978607113148328,0.8267490476490894,1.1750243381622851,-1.9140483576687082,-2.772001225780086,1.2333725552761976,-1.4878197940599662,0.7545861980350411,0.8465715454883441,1.2750943289368581,1.4793703219111336,1.3226680902903512,0.9092407993628242,1.1077504636241022,0.21234227253469504,0.3718342394165437,0.200709873755665,-0.21254534778656928
0.07280887247691457,-0.19076881712667804,-1.8321275474123233,0.8641952325618101,-0.4356946643343094,0.4817525506292536,0.3626158489077696,-1.6161494083738148,-2.1064493207124824,-1.6737603473892326,0.2652858654153619,0.6908635757017256,-0.1903649272317208,-0.00649604763964317,0.8787862632278932,0.1901090300867719,0.8671711246549867,-0.3432554229124924,-0.7011542137372947
-0.305583701645109,0.574858306640691,-0.5727775780171087,0.3400162755097476,0.7289550422960188,-0.3788292693779715,0.03884633543454897,0.106406687726393,-0.15305346337722858,-0.32699927147688757,-1.0690074383417256,-1.2565377612535078,0.9815927952087801,-0.32236319704404826,0.38469582442270406,0.8796074470669628,0.4296752977253454,0.22338360669441423,0.36760157031689544
0.5459913610530498,-0.09278552475080416,1.2753722437971857,-1.0790956772457405,-0.07849520631614554,-0.03642511225607929,0.853064989425777,-1.9570141325691748,0.5362694772341234,0.5945078262654375,-0.06733045251829176,0.21546494404233466,0.44306866980485715,1.8074969439646573,-1.4526300853715899,0.06469535305033891,-0.06269191864350336,0.07552265653932526,-0.5008464343302593
1.2624392623138514,-1.7835427301807436,0.6735428044224431,-0.47403365406607123,0.16676854317521758,0.5839889447723935,-1.7354309680454356,0.3531813093294024,-0.2826778078390846,-0.42814828104044755,0.9744897262207288,0.6529059477094447,0.5736267056902855,0.38050917334666995,-0.528879983380983,-1.8404631571158416,-1.3911661460623386,0.20423983062985387,-0.3517805279187499
0.44261591029969566,0.507465277123362,1.4110329291717498,-0.25223988337484116,0.6327219863523567,0.3338161020200129,1.3166794123924728,-0.04289116499773221,0.5760573466143046,0.5217769343635165,0.20965123473578148,0.5080612116647676,-0.34015183532366644,-0.08934793095854171,-0.23670878731233652,-0.4076867145309023,-0.05241375835129374,0.03139551240864327,0.8264500709914487
